difficulty,target_type,condition,dist_pos_x,ans,target_idx,thisN,thisTrialN,thisRepN,Anskey.keys,Anskey.corr,Anskey.rt,Anskey.duration,Prac_Loop.thisRepN,Prac_Loop.thisTrialN,Prac_Loop.thisN,Prac_Loop.thisIndex,Trials_Loop.thisRepN,Trials_Loop.thisTrialN,Trials_Loop.thisN,Trials_Loop.thisIndex,thisRow.t,notes,piloting,Intro.started,Intro.stopped,Intro_keyresp.keys,Intro_keyresp.rt,Intro_keyresp.duration,Trial_Routine.started,Anskey.started,Trial_Routine.stopped,Prac_Loop.Anskey.keys,Prac_Loop.Anskey.corr,Prac_Loop.Anskey.rt,Prac_Loop.Anskey.duration,Anskey.stopped,Ready.started,Ready.stopped,Ready_keyresp.keys,Ready_keyresp.rt,Ready_keyresp.duration,Trials_Loop.Anskey.keys,Trials_Loop.Anskey.corr,Trials_Loop.Anskey.rt,Trials_Loop.Anskey.duration,ThankYou.started,ThankYou.stopped,Thanks_keyresp.keys,Thanks_keyresp.rt,Thanks_keyresp.duration,participant,date,expName,expVersion,psychopyVersion,frameRate,expStart
,,,,,,,,,,,,,,,,,,,,,,,FALSE,0.0079549,1.6473505,space,1.1465435,None,,,,,,,,,,,,,,,,,,,,,,,p001,2026-04-14_11h58.44.848,Flanker Compatibility Task,,2026.1.1,118.8225634,2026-04-14 11h58.45.136358 +0800
2,square,cong,10,a,5,0,0,0,a,1,1.6560102,None,0,0,0,4,,,,,1.6728797,,,,,,,,1.6642471,2.1411763,3.7999579,a,1,1.6560102,None,,,,,,,,,,,,,,,,p001,2026-04-14_11h58.44.848,Flanker Compatibility Task,,2026.1.1,118.8225634,2026-04-14 11h58.45.136358 +0800
1,diamond,incong,-10,l,5,1,1,0,l,1,1.3488882,None,0,1,1,3,,,,,3.8073119,,,,,,,,3.8011278,4.2940656,5.6492091,l,1,1.3488882,None,,,,,,,,,,,,,,,,p001,2026-04-14_11h58.44.848,Flanker Compatibility Task,,2026.1.1,118.8225634,2026-04-14 11h58.45.136358 +0800
3,diamond,cong,10,l,1,2,2,0,a,0,1.0457558,None,0,2,2,10,,,,,5.6569035,,,,,,,,5.650412,6.1449404,7.2006411,a,0,1.0457558,None,,,,,,,,,,,,,,,,p001,2026-04-14_11h58.44.848,Flanker Compatibility Task,,2026.1.1,118.8225634,2026-04-14 11h58.45.136358 +0800
1,square,cong,-10,a,1,3,3,0,a,1,1.3487564,None,0,3,3,0,,,,,7.2075098,,,,,,,,7.2018803,7.7019439,9.0570764,a,1,1.3487564,None,,,,,,,,,,,,,,,,p001,2026-04-14_11h58.44.848,Flanker Compatibility Task,,2026.1.1,118.8225634,2026-04-14 11h58.45.136358 +0800
3,square,cong,-10,a,1,4,4,0,a,1,0.8203844,None,0,4,4,8,,,,,9.0651604,,,,,,,,9.0584916,9.5522592,10.3734173,a,1,0.8203844,None,,,,,,,,,,,,,,,,p001,2026-04-14_11h58.44.848,Flanker Compatibility Task,,2026.1.1,118.8225634,2026-04-14 11h58.45.136358 +0800
2,square,incong,-10,a,2,5,5,0,a,1,1.1852748,None,0,5,5,5,,,,,10.380638,,,,,,,,10.3743252,10.8672516,12.0570895,a,1,1.1852748,None,,,,,,,,,,,,,,,,p001,2026-04-14_11h58.44.848,Flanker Compatibility Task,,2026.1.1,118.8225634,2026-04-14 11h58.45.136358 +0800
1,diamond,cong,10,l,0,6,6,0,l,1,0.7502691,None,0,6,6,2,,,,,12.0636968,,,,,,,,12.0580352,12.5515958,13.3062472,l,1,0.7502691,None,,,,,,,,,,,,,,,,p001,2026-04-14_11h58.44.848,Flanker Compatibility Task,,2026.1.1,118.8225634,2026-04-14 11h58.45.136358 +0800
2,diamond,cong,-10,l,3,7,7,0,a,0,1.0493595,None,0,7,7,6,,,,,13.3132825,,,,,,,,13.30744,13.8015987,14.8557436,a,0,1.0493595,None,,,,,,,,,,,,,,,,p001,2026-04-14_11h58.44.848,Flanker Compatibility Task,,2026.1.1,118.8225634,2026-04-14 11h58.45.136358 +0800
1,square,incong,10,a,3,8,8,0,a,1,0.9036651,None,0,8,8,1,,,,,14.8628891,,,,,,,,14.8569871,15.3504076,16.2550852,a,1,0.9036651,None,,,,,,,,,,,,,,,,p001,2026-04-14_11h58.44.848,Flanker Compatibility Task,,2026.1.1,118.8225634,2026-04-14 11h58.45.136358 +0800
4,diamond,cong,-10,l,4,9,9,0,l,1,0.862497,None,0,9,9,14,,,,,16.26291,,,,,,,,16.2565306,16.7492496,17.6134634,l,1,0.862497,None,,,,,,,,,,,,,,,,p001,2026-04-14_11h58.44.848,Flanker Compatibility Task,,2026.1.1,118.8225634,2026-04-14 11h58.45.136358 +0800
2,diamond,incong,10,l,0,10,10,0,l,1,0.7650988,None,0,10,10,7,,,,,17.6207521,,,,,,,,17.6146899,18.1083555,18.8792778,l,1,0.7650988,None,,,,,,,,,,,,,,,,p001,2026-04-14_11h58.44.848,Flanker Compatibility Task,,2026.1.1,118.8225634,2026-04-14 11h58.45.136358 +0800
4,square,cong,10,a,5,11,11,0,a,1,1.021345,None,0,11,11,12,,,,,18.8873396,,,,,,,,18.8803828,19.3752344,20.4032011,a,1,1.021345,None,,,,,,,,,,,,,,,,p001,2026-04-14_11h58.44.848,Flanker Compatibility Task,,2026.1.1,118.8225634,2026-04-14 11h58.45.136358 +0800
3,square,incong,10,a,5,12,12,0,l,0,0.7690643,None,0,12,12,9,,,,,20.4107179,,,,,,,,20.4046963,20.898742,21.6706391,l,0,0.7690643,None,,,,,,,,,,,,,,,,p001,2026-04-14_11h58.44.848,Flanker Compatibility Task,,2026.1.1,118.8225634,2026-04-14 11h58.45.136358 +0800
3,diamond,incong,-10,l,4,13,13,0,a,0,0.8338362,None,0,13,13,11,,,,,21.6771239,,,,,,,,21.6720806,22.1730174,23.0124272,a,0,0.8338362,None,,,,,,,,,,,,,,,,p001,2026-04-14_11h58.44.848,Flanker Compatibility Task,,2026.1.1,118.8225634,2026-04-14 11h58.45.136358 +0800
4,diamond,incong,10,l,2,14,14,0,None,0,,,0,14,14,15,,,,,23.0182849,,,,,,,,23.0138532,23.5147587,27.0023202,None,0,,,27.0098624,,,,,,,,,,,,,,,p001,2026-04-14_11h58.44.848,Flanker Compatibility Task,,2026.1.1,118.8225634,2026-04-14 11h58.45.136358 +0800
4,square,incong,-10,a,1,15,15,0,a,1,1.2458038,None,0,15,15,13,,,,,27.0098624,,,,,,,,27.0039242,27.5138585,28.7693497,a,1,1.2458038,None,,,,,,,,,,,,,,,,p001,2026-04-14_11h58.44.848,Flanker Compatibility Task,,2026.1.1,118.8225634,2026-04-14 11h58.45.136358 +0800
,,,,,,,,,,,,,,,,,,,,,,,,,,,,,,,,,,,,,28.769539,38.8241669,space,9.5562394,None,,,,,,,,,,p001,2026-04-14_11h58.44.848,Flanker Compatibility Task,,2026.1.1,118.8225634,2026-04-14 11h58.45.136358 +0800
2,diamond,cong,-10,l,2,0,0,0,l,1,0.8290693,None,,,,,0,0,0,74,38.8768553,,,,,,,,38.8728345,39.3239347,40.154865,,,,,,,,,,,l,1,0.8290693,None,,,,,,p001,2026-04-14_11h58.44.848,Flanker Compatibility Task,,2026.1.1,118.8225634,2026-04-14 11h58.45.136358 +0800
3,diamond,cong,10,l,0,1,1,0,l,1,0.8305737,None,,,,,0,1,1,126,40.1615499,,,,,,,,40.1563047,40.6570974,41.494971,,,,,,,,,,,l,1,0.8305737,None,,,,,,p001,2026-04-14_11h58.44.848,Flanker Compatibility Task,,2026.1.1,118.8225634,2026-04-14 11h58.45.136358 +0800
3,diamond,cong,-10,l,4,2,2,0,a,0,0.7723317,None,,,,,0,2,2,124,41.5026912,,,,,,,,41.496303,41.990571,42.7701018,,,,,,,,,,,a,0,0.7723317,None,,,,,,p001,2026-04-14_11h58.44.848,Flanker Compatibility Task,,2026.1.1,118.8225634,2026-04-14 11h58.45.136358 +0800
4,diamond,incong,10,l,5,3,3,0,a,0,0.6612946,None,,,,,0,3,3,191,42.7782566,,,,,,,,42.771567,43.2740127,43.9370896,,,,,,,,,,,a,0,0.6612946,None,,,,,,p001,2026-04-14_11h58.44.848,Flanker Compatibility Task,,2026.1.1,118.8225634,2026-04-14 11h58.45.136358 +0800
3,square,cong,-10,a,4,4,4,0,l,0,0.6874065,None,,,,,0,4,4,100,43.9439565,,,,,,,,43.9385481,44.4395409,45.1280173,,,,,,,,,,,l,0,0.6874065,None,,,,,,p001,2026-04-14_11h58.44.848,Flanker Compatibility Task,,2026.1.1,118.8225634,2026-04-14 11h58.45.136358 +0800
3,square,incong,-10,a,3,5,5,0,a,1,0.6651322,None,,,,,0,5,5,111,45.1358541,,,,,,,,45.1295153,45.6223481,46.2940238,,,,,,,,,,,a,1,0.6651322,None,,,,,,p001,2026-04-14_11h58.44.848,Flanker Compatibility Task,,2026.1.1,118.8225634,2026-04-14 11h58.45.136358 +0800
4,diamond,cong,10,l,1,6,6,0,a,0,0.7534839,None,,,,,0,6,6,175,46.3023958,,,,,,,,46.2954359,46.789855,47.544587,,,,,,,,,,,a,0,0.7534839,None,,,,,,p001,2026-04-14_11h58.44.848,Flanker Compatibility Task,,2026.1.1,118.8225634,2026-04-14 11h58.45.136358 +0800
4,square,cong,-10,a,0,7,7,0,a,1,0.6568138,None,,,,,0,7,7,144,47.5511045,,,,,,,,47.545774,48.0474691,48.7103369,,,,,,,,,,,a,1,0.6568138,None,,,,,,p001,2026-04-14_11h58.44.848,Flanker Compatibility Task,,2026.1.1,118.8225634,2026-04-14 11h58.45.136358 +0800
2,square,incong,10,a,3,8,8,0,l,0,0.6913878,None,,,,,0,8,8,69,48.7181158,,,,,,,,48.711822,49.2040755,49.9015109,,,,,,,,,,,l,0,0.6913878,None,,,,,,p001,2026-04-14_11h58.44.848,Flanker Compatibility Task,,2026.1.1,118.8225634,2026-04-14 11h58.45.136358 +0800
1,square,incong,-10,a,5,9,9,0,a,1,0.4581472,None,,,,,0,9,9,17,49.9096771,,,,,,,,49.9026888,50.3965966,50.8595248,,,,,,,,,,,a,1,0.4581472,None,,,,,,p001,2026-04-14_11h58.44.848,Flanker Compatibility Task,,2026.1.1,118.8225634,2026-04-14 11h58.45.136358 +0800
3,square,cong,-10,a,2,10,10,0,a,1,0.7385227,None,,,,,0,10,10,98,50.8676478,,,,,,,,50.8608756,51.3549893,52.1008949,,,,,,,,,,,a,1,0.7385227,None,,,,,,p001,2026-04-14_11h58.44.848,Flanker Compatibility Task,,2026.1.1,118.8225634,2026-04-14 11h58.45.136358 +0800
4,diamond,incong,10,l,0,11,11,0,a,0,0.8070327,None,,,,,0,11,11,186,52.1084309,,,,,,,,52.1023432,52.5929038,53.4020008,,,,,,,,,,,a,0,0.8070327,None,,,,,,p001,2026-04-14_11h58.44.848,Flanker Compatibility Task,,2026.1.1,118.8225634,2026-04-14 11h58.45.136358 +0800
2,square,incong,-10,a,5,12,12,0,a,1,0.5831556,None,,,,,0,12,12,65,53.4085557,,,,,,,,53.4030004,53.9041509,54.4931299,,,,,,,,,,,a,1,0.5831556,None,,,,,,p001,2026-04-14_11h58.44.848,Flanker Compatibility Task,,2026.1.1,118.8225634,2026-04-14 11h58.45.136358 +0800
1,square,incong,-10,a,1,13,13,0,a,1,0.5137171,None,,,,,0,13,13,13,54.5002641,,,,,,,,54.4942786,54.9875739,55.5021316,,,,,,,,,,,a,1,0.5137171,None,,,,,,p001,2026-04-14_11h58.44.848,Flanker Compatibility Task,,2026.1.1,118.8225634,2026-04-14 11h58.45.136358 +0800
4,diamond,incong,-10,l,4,14,14,0,l,1,0.6077724,None,,,,,0,14,14,184,55.5083392,,,,,,,,55.5036637,56.0045491,56.6180109,,,,,,,,,,,l,1,0.6077724,None,,,,,,p001,2026-04-14_11h58.44.848,Flanker Compatibility Task,,2026.1.1,118.8225634,2026-04-14 11h58.45.136358 +0800
2,square,incong,10,a,1,15,15,0,a,1,0.545567,None,,,,,0,15,15,67,56.623953,,,,,,,,56.619546,57.1195997,57.6667597,,,,,,,,,,,a,1,0.545567,None,,,,,,p001,2026-04-14_11h58.44.848,Flanker Compatibility Task,,2026.1.1,118.8225634,2026-04-14 11h58.45.136358 +0800
3,square,cong,-10,a,5,16,16,0,a,1,0.5142436,None,,,,,0,16,16,101,57.674328,,,,,,,,57.6681571,58.1772143,58.6986926,,,,,,,,,,,a,1,0.5142436,None,,,,,,p001,2026-04-14_11h58.44.848,Flanker Compatibility Task,,2026.1.1,118.8225634,2026-04-14 11h58.45.136358 +0800
1,diamond,incong,-10,l,1,17,17,0,l,1,0.5603568,None,,,,,0,17,17,37,58.706725,,,,,,,,58.6999457,59.1940565,59.7582229,,,,,,,,,,,l,1,0.5603568,None,,,,,,p001,2026-04-14_11h58.44.848,Flanker Compatibility Task,,2026.1.1,118.8225634,2026-04-14 11h58.45.136358 +0800
4,square,incong,10,a,1,18,18,0,a,1,0.57782,None,,,,,0,18,18,163,59.7648138,,,,,,,,59.7599506,60.2538045,60.8325777,,,,,,,,,,,a,1,0.57782,None,,,,,,p001,2026-04-14_11h58.44.848,Flanker Compatibility Task,,2026.1.1,118.8225634,2026-04-14 11h58.45.136358 +0800
3,square,cong,10,a,4,19,19,0,l,0,0.594547,None,,,,,0,19,19,106,60.8401161,,,,,,,,60.8339685,61.3272575,61.9337581,,,,,,,,,,,l,0,0.594547,None,,,,,,p001,2026-04-14_11h58.44.848,Flanker Compatibility Task,,2026.1.1,118.8225634,2026-04-14 11h58.45.136358 +0800
3,square,incong,10,a,5,20,20,0,a,1,0.6557504,None,,,,,0,20,20,119,61.9458705,,,,,,,,61.9368617,62.4368807,63.0987414,,,,,,,,,,,a,1,0.6557504,None,,,,,,p001,2026-04-14_11h58.44.848,Flanker Compatibility Task,,2026.1.1,118.8225634,2026-04-14 11h58.45.136358 +0800
3,diamond,cong,-10,l,1,21,21,0,l,1,0.7981457,None,,,,,0,21,21,121,63.1073438,,,,,,,,63.1000922,63.5940842,64.3981884,,,,,,,,,,,l,1,0.7981457,None,,,,,,p001,2026-04-14_11h58.44.848,Flanker Compatibility Task,,2026.1.1,118.8225634,2026-04-14 11h58.45.136358 +0800
4,square,cong,-10,a,1,22,22,0,a,1,0.6369369,None,,,,,0,22,22,145,64.406581,,,,,,,,64.3996451,64.8932002,65.5323783,,,,,,,,,,,a,1,0.6369369,None,,,,,,p001,2026-04-14_11h58.44.848,Flanker Compatibility Task,,2026.1.1,118.8225634,2026-04-14 11h58.45.136358 +0800
4,square,incong,-10,a,3,23,23,0,a,1,0.6912918,None,,,,,0,23,23,159,65.5391586,,,,,,,,65.5342612,66.0342968,66.7320093,,,,,,,,,,,a,1,0.6912918,None,,,,,,p001,2026-04-14_11h58.44.848,Flanker Compatibility Task,,2026.1.1,118.8225634,2026-04-14 11h58.45.136358 +0800
1,square,cong,-10,a,3,24,24,0,a,1,0.4563249,None,,,,,0,24,24,3,66.7393116,,,,,,,,66.7335254,67.2337345,67.697331,,,,,,,,,,,a,1,0.4563249,None,,,,,,p001,2026-04-14_11h58.44.848,Flanker Compatibility Task,,2026.1.1,118.8225634,2026-04-14 11h58.45.136358 +0800
4,diamond,cong,10,l,5,25,25,0,l,1,0.6222943,None,,,,,0,25,25,179,67.7056055,,,,,,,,67.6988271,68.1932537,68.8230618,,,,,,,,,,,l,1,0.6222943,None,,,,,,p001,2026-04-14_11h58.44.848,Flanker Compatibility Task,,2026.1.1,118.8225634,2026-04-14 11h58.45.136358 +0800
3,square,incong,-10,a,2,26,26,0,a,1,0.7510494,None,,,,,0,26,26,110,68.8296855,,,,,,,,68.8245302,69.3257665,70.0813536,,,,,,,,,,,a,1,0.7510494,None,,,,,,p001,2026-04-14_11h58.44.848,Flanker Compatibility Task,,2026.1.1,118.8225634,2026-04-14 11h58.45.136358 +0800
2,diamond,cong,10,l,2,27,27,0,a,0,0.4923732,None,,,,,0,27,27,80,70.0877992,,,,,,,,70.0827128,70.5826209,71.0790848,,,,,,,,,,,a,0,0.4923732,None,,,,,,p001,2026-04-14_11h58.44.848,Flanker Compatibility Task,,2026.1.1,118.8225634,2026-04-14 11h58.45.136358 +0800
2,square,incong,10,a,0,28,28,0,a,1,0.4943969,None,,,,,0,28,28,66,71.0872683,,,,,,,,71.0803394,71.5867157,72.0874957,,,,,,,,,,,a,1,0.4943969,None,,,,,,p001,2026-04-14_11h58.44.848,Flanker Compatibility Task,,2026.1.1,118.8225634,2026-04-14 11h58.45.136358 +0800
3,square,incong,-10,a,4,29,29,0,l,0,0.5922984,None,,,,,0,29,29,112,72.0959009,,,,,,,,72.088839,72.5832195,73.179624,,,,,,,,,,,l,0,0.5922984,None,,,,,,p001,2026-04-14_11h58.44.848,Flanker Compatibility Task,,2026.1.1,118.8225634,2026-04-14 11h58.45.136358 +0800
2,square,cong,-10,a,1,30,30,0,a,1,0.7550124,None,,,,,0,30,30,49,73.1870923,,,,,,,,73.180978,73.681167,74.4385033,,,,,,,,,,,a,1,0.7550124,None,,,,,,p001,2026-04-14_11h58.44.848,Flanker Compatibility Task,,2026.1.1,118.8225634,2026-04-14 11h58.45.136358 +0800
1,diamond,cong,10,l,2,31,31,0,l,1,0.6739246,None,,,,,0,31,31,32,74.4454221,,,,,,,,74.4397951,74.9391794,75.6139082,,,,,,,,,,,l,1,0.6739246,None,,,,,,p001,2026-04-14_11h58.44.848,Flanker Compatibility Task,,2026.1.1,118.8225634,2026-04-14 11h58.45.136358 +0800
4,square,incong,-10,a,4,32,32,0,a,1,0.5943767,None,,,,,0,32,32,160,75.6204227,,,,,,,,75.6156449,76.115683,76.7126925,,,,,,,,,,,a,1,0.5943767,None,,,,,,p001,2026-04-14_11h58.44.848,Flanker Compatibility Task,,2026.1.1,118.8225634,2026-04-14 11h58.45.136358 +0800
2,diamond,cong,-10,l,4,33,33,0,l,1,0.5734737,None,,,,,0,33,33,76,76.7194714,,,,,,,,76.7141381,77.2137264,77.7949329,,,,,,,,,,,l,1,0.5734737,None,,,,,,p001,2026-04-14_11h58.44.848,Flanker Compatibility Task,,2026.1.1,118.8225634,2026-04-14 11h58.45.136358 +0800
4,diamond,cong,-10,l,3,34,34,0,a,0,0.4953908,None,,,,,0,34,34,171,77.8028894,,,,,,,,77.7963465,78.2903425,78.7941703,,,,,,,,,,,a,0,0.4953908,None,,,,,,p001,2026-04-14_11h58.44.848,Flanker Compatibility Task,,2026.1.1,118.8225634,2026-04-14 11h58.45.136358 +0800
4,diamond,incong,-10,l,0,35,35,0,a,0,0.7849245,None,,,,,0,35,35,180,78.8027063,,,,,,,,78.7955529,79.2906152,80.0780564,,,,,,,,,,,a,0,0.7849245,None,,,,,,p001,2026-04-14_11h58.44.848,Flanker Compatibility Task,,2026.1.1,118.8225634,2026-04-14 11h58.45.136358 +0800
2,diamond,incong,10,l,3,36,36,0,l,1,0.5757451,None,,,,,0,36,36,93,80.0852731,,,,,,,,80.0790531,80.5731362,81.1623491,,,,,,,,,,,l,1,0.5757451,None,,,,,,p001,2026-04-14_11h58.44.848,Flanker Compatibility Task,,2026.1.1,118.8225634,2026-04-14 11h58.45.136358 +0800
1,square,cong,10,a,4,37,37,0,a,1,0.5228742,None,,,,,0,37,37,10,81.1718714,,,,,,,,81.1657222,81.6636259,82.1935506,,,,,,,,,,,a,1,0.5228742,None,,,,,,p001,2026-04-14_11h58.44.848,Flanker Compatibility Task,,2026.1.1,118.8225634,2026-04-14 11h58.45.136358 +0800
4,diamond,cong,-10,l,0,38,38,0,l,1,0.5437253,None,,,,,0,38,38,168,82.2018418,,,,,,,,82.1949918,82.6952538,83.2436875,,,,,,,,,,,l,1,0.5437253,None,,,,,,p001,2026-04-14_11h58.44.848,Flanker Compatibility Task,,2026.1.1,118.8225634,2026-04-14 11h58.45.136358 +0800
1,square,cong,10,a,5,39,39,0,a,1,0.5257959,None,,,,,0,39,39,11,83.2511079,,,,,,,,83.2450007,83.7465988,84.275934,,,,,,,,,,,a,1,0.5257959,None,,,,,,p001,2026-04-14_11h58.44.848,Flanker Compatibility Task,,2026.1.1,118.8225634,2026-04-14 11h58.45.136358 +0800
3,diamond,incong,-10,l,1,40,40,0,l,1,0.6645403,None,,,,,0,40,40,133,84.2837053,,,,,,,,84.2772695,84.7688572,85.4341898,,,,,,,,,,,l,1,0.6645403,None,,,,,,p001,2026-04-14_11h58.44.848,Flanker Compatibility Task,,2026.1.1,118.8225634,2026-04-14 11h58.45.136358 +0800
3,diamond,incong,-10,l,2,41,41,0,a,0,0.6466112,None,,,,,0,41,41,134,85.4415926,,,,,,,,85.4351944,85.9295906,86.577053,,,,,,,,,,,a,0,0.6466112,None,,,,,,p001,2026-04-14_11h58.44.848,Flanker Compatibility Task,,2026.1.1,118.8225634,2026-04-14 11h58.45.136358 +0800
4,diamond,incong,-10,l,3,42,42,0,a,0,0.6076259,None,,,,,0,42,42,183,86.5832088,,,,,,,,86.5785786,87.0799945,87.6930969,,,,,,,,,,,a,0,0.6076259,None,,,,,,p001,2026-04-14_11h58.44.848,Flanker Compatibility Task,,2026.1.1,118.8225634,2026-04-14 11h58.45.136358 +0800
1,square,cong,10,a,0,43,43,0,a,1,0.542421,None,,,,,0,43,43,6,87.6996281,,,,,,,,87.6943528,88.1932899,88.7416015,,,,,,,,,,,a,1,0.542421,None,,,,,,p001,2026-04-14_11h58.44.848,Flanker Compatibility Task,,2026.1.1,118.8225634,2026-04-14 11h58.45.136358 +0800
3,diamond,cong,10,l,5,44,44,0,l,1,0.6948667,None,,,,,0,44,44,131,88.7491713,,,,,,,,88.7425581,89.23696,89.9344014,,,,,,,,,,,l,1,0.6948667,None,,,,,,p001,2026-04-14_11h58.44.848,Flanker Compatibility Task,,2026.1.1,118.8225634,2026-04-14 11h58.45.136358 +0800
3,diamond,incong,-10,l,0,45,45,0,l,1,0.6359469,None,,,,,0,45,45,132,89.9409073,,,,,,,,89.9358505,90.4357602,91.0754139,,,,,,,,,,,l,1,0.6359469,None,,,,,,p001,2026-04-14_11h58.44.848,Flanker Compatibility Task,,2026.1.1,118.8225634,2026-04-14 11h58.45.136358 +0800
1,square,incong,10,a,1,46,46,0,a,1,0.6825636,None,,,,,0,46,46,19,91.0821697,,,,,,,,91.0767214,91.5761869,92.2596448,,,,,,,,,,,a,1,0.6825636,None,,,,,,p001,2026-04-14_11h58.44.848,Flanker Compatibility Task,,2026.1.1,118.8225634,2026-04-14 11h58.45.136358 +0800
1,square,incong,10,a,3,47,47,0,a,1,0.4390256,None,,,,,0,47,47,21,92.2657344,,,,,,,,92.2609369,92.7583578,93.1999051,,,,,,,,,,,a,1,0.4390256,None,,,,,,p001,2026-04-14_11h58.44.848,Flanker Compatibility Task,,2026.1.1,118.8225634,2026-04-14 11h58.45.136358 +0800
3,diamond,cong,10,l,4,48,48,0,a,0,0.5222346,None,,,,,0,48,48,130,93.2065976,,,,,,,,93.2013721,93.6946319,94.2240649,,,,,,,,,,,a,0,0.5222346,None,,,,,,p001,2026-04-14_11h58.44.848,Flanker Compatibility Task,,2026.1.1,118.8225634,2026-04-14 11h58.45.136358 +0800
4,square,cong,10,a,3,49,49,0,a,1,0.5778205,None,,,,,0,49,49,153,94.2316642,,,,,,,,94.2258395,94.7195607,95.2989932,,,,,,,,,,,a,1,0.5778205,None,,,,,,p001,2026-04-14_11h58.44.848,Flanker Compatibility Task,,2026.1.1,118.8225634,2026-04-14 11h58.45.136358 +0800
4,diamond,cong,10,l,3,50,50,0,l,1,0.4673561,None,,,,,0,50,50,177,95.3061778,,,,,,,,95.3001277,95.7937559,96.2649413,,,,,,,,,,,l,1,0.4673561,None,,,,,,p001,2026-04-14_11h58.44.848,Flanker Compatibility Task,,2026.1.1,118.8225634,2026-04-14 11h58.45.136358 +0800
3,square,incong,10,a,0,51,51,0,a,1,0.5449453,None,,,,,0,51,51,114,96.2722535,,,,,,,,96.2662772,96.7704731,97.3162809,,,,,,,,,,,a,1,0.5449453,None,,,,,,p001,2026-04-14_11h58.44.848,Flanker Compatibility Task,,2026.1.1,118.8225634,2026-04-14 11h58.45.136358 +0800
2,diamond,incong,-10,l,5,52,52,0,l,1,0.4964211,None,,,,,0,52,52,89,97.3225099,,,,,,,,97.3176019,97.8188506,98.3235165,,,,,,,,,,,l,1,0.4964211,None,,,,,,p001,2026-04-14_11h58.44.848,Flanker Compatibility Task,,2026.1.1,118.8225634,2026-04-14 11h58.45.136358 +0800
3,square,cong,-10,a,0,53,53,0,a,1,0.5161348,None,,,,,0,53,53,96,98.3304164,,,,,,,,98.3252084,98.8257236,99.3476907,,,,,,,,,,,a,1,0.5161348,None,,,,,,p001,2026-04-14_11h58.44.848,Flanker Compatibility Task,,2026.1.1,118.8225634,2026-04-14 11h58.45.136358 +0800
1,square,incong,10,a,2,54,54,0,a,1,0.4641013,None,,,,,0,54,54,20,99.3550686,,,,,,,,99.348817,99.8425076,100.3150881,,,,,,,,,,,a,1,0.4641013,None,,,,,,p001,2026-04-14_11h58.44.848,Flanker Compatibility Task,,2026.1.1,118.8225634,2026-04-14 11h58.45.136358 +0800
1,diamond,incong,10,l,5,55,55,0,l,1,0.6022959,None,,,,,0,55,55,47,100.3219566,,,,,,,,100.3163539,100.8159013,101.4229128,,,,,,,,,,,l,1,0.6022959,None,,,,,,p001,2026-04-14_11h58.44.848,Flanker Compatibility Task,,2026.1.1,118.8225634,2026-04-14 11h58.45.136358 +0800
1,square,incong,-10,a,3,56,56,0,a,1,0.4729459,None,,,,,0,56,56,15,101.4295507,,,,,,,,101.4242387,101.9173586,102.3964503,,,,,,,,,,,a,1,0.4729459,None,,,,,,p001,2026-04-14_11h58.44.848,Flanker Compatibility Task,,2026.1.1,118.8225634,2026-04-14 11h58.45.136358 +0800
1,diamond,cong,10,l,0,57,57,0,l,1,0.5292118,None,,,,,0,57,57,30,102.4041919,,,,,,,,102.3975899,102.8914199,103.4213605,,,,,,,,,,,l,1,0.5292118,None,,,,,,p001,2026-04-14_11h58.44.848,Flanker Compatibility Task,,2026.1.1,118.8225634,2026-04-14 11h58.45.136358 +0800
3,diamond,cong,10,l,2,58,58,0,l,1,0.5270895,None,,,,,0,58,58,128,103.4289349,,,,,,,,103.4227254,103.9176062,104.4471235,,,,,,,,,,,l,1,0.5270895,None,,,,,,p001,2026-04-14_11h58.44.848,Flanker Compatibility Task,,2026.1.1,118.8225634,2026-04-14 11h58.45.136358 +0800
2,square,incong,10,a,2,59,59,0,a,1,0.5944051,None,,,,,0,59,59,68,104.4536267,,,,,,,,104.4484537,104.950255,105.5465529,,,,,,,,,,,a,1,0.5944051,None,,,,,,p001,2026-04-14_11h58.44.848,Flanker Compatibility Task,,2026.1.1,118.8225634,2026-04-14 11h58.45.136358 +0800
4,square,cong,-10,a,5,60,60,0,a,1,0.4909957,None,,,,,0,60,60,149,105.5533894,,,,,,,,105.5481191,106.0417122,106.5381858,,,,,,,,,,,a,1,0.4909957,None,,,,,,p001,2026-04-14_11h58.44.848,Flanker Compatibility Task,,2026.1.1,118.8225634,2026-04-14 11h58.45.136358 +0800
1,diamond,cong,10,l,5,61,61,0,l,1,0.538382,None,,,,,0,61,61,35,106.5456281,,,,,,,,106.5393577,107.0326935,107.5719599,,,,,,,,,,,l,1,0.538382,None,,,,,,p001,2026-04-14_11h58.44.848,Flanker Compatibility Task,,2026.1.1,118.8225634,2026-04-14 11h58.45.136358 +0800
2,square,cong,-10,a,5,62,62,0,a,1,0.4355462,None,,,,,0,62,62,53,107.5780381,,,,,,,,107.5733028,108.073986,108.5116023,,,,,,,,,,,a,1,0.4355462,None,,,,,,p001,2026-04-14_11h58.44.848,Flanker Compatibility Task,,2026.1.1,118.8225634,2026-04-14 11h58.45.136358 +0800
2,diamond,cong,10,l,0,63,63,0,l,1,0.5165368,None,,,,,0,63,63,78,108.5192091,,,,,,,,108.5127928,109.0079018,109.5296597,,,,,,,,,,,l,1,0.5165368,None,,,,,,p001,2026-04-14_11h58.44.848,Flanker Compatibility Task,,2026.1.1,118.8225634,2026-04-14 11h58.45.136358 +0800
1,square,cong,-10,a,5,64,64,0,a,1,0.6884878,None,,,,,0,64,64,5,109.5360478,,,,,,,,109.5309249,110.0321469,110.7278921,,,,,,,,,,,a,1,0.6884878,None,,,,,,p001,2026-04-14_11h58.44.848,Flanker Compatibility Task,,2026.1.1,118.8225634,2026-04-14 11h58.45.136358 +0800
3,diamond,incong,10,l,0,65,65,0,l,1,0.5363918,None,,,,,0,65,65,138,110.7358671,,,,,,,,110.7297605,111.2229878,111.7617384,,,,,,,,,,,l,1,0.5363918,None,,,,,,p001,2026-04-14_11h58.44.848,Flanker Compatibility Task,,2026.1.1,118.8225634,2026-04-14 11h58.45.136358 +0800
1,square,incong,-10,a,2,66,66,0,a,1,0.9038466,None,,,,,0,66,66,14,111.768384,,,,,,,,111.7627145,112.262339,113.1696786,,,,,,,,,,,a,1,0.9038466,None,,,,,,p001,2026-04-14_11h58.44.848,Flanker Compatibility Task,,2026.1.1,118.8225634,2026-04-14 11h58.45.136358 +0800
1,diamond,cong,-10,l,5,67,67,0,l,1,0.6207497,None,,,,,0,67,67,29,113.1764248,,,,,,,,113.170971,113.6642502,114.2863921,,,,,,,,,,,l,1,0.6207497,None,,,,,,p001,2026-04-14_11h58.44.848,Flanker Compatibility Task,,2026.1.1,118.8225634,2026-04-14 11h58.45.136358 +0800
4,square,incong,10,a,2,68,68,0,a,1,0.789368,None,,,,,0,68,68,164,114.2928542,,,,,,,,114.2884377,114.7808325,115.5769043,,,,,,,,,,,a,1,0.789368,None,,,,,,p001,2026-04-14_11h58.44.848,Flanker Compatibility Task,,2026.1.1,118.8225634,2026-04-14 11h58.45.136358 +0800
4,diamond,incong,-10,l,2,69,69,0,a,0,0.8000491,None,,,,,0,69,69,182,115.5842866,,,,,,,,115.5784939,116.0729112,116.877343,,,,,,,,,,,a,0,0.8000491,None,,,,,,p001,2026-04-14_11h58.44.848,Flanker Compatibility Task,,2026.1.1,118.8225634,2026-04-14 11h58.45.136358 +0800
4,square,cong,10,a,1,70,70,0,a,1,0.7947207,None,,,,,0,70,70,151,116.8839832,,,,,,,,116.8788768,117.3805589,118.1763799,,,,,,,,,,,a,1,0.7947207,None,,,,,,p001,2026-04-14_11h58.44.848,Flanker Compatibility Task,,2026.1.1,118.8225634,2026-04-14 11h58.45.136358 +0800
3,square,incong,-10,a,0,71,71,0,a,1,1.0753506,None,,,,,0,71,71,108,118.1836103,,,,,,,,118.1777277,118.6718612,119.7519692,,,,,,,,,,,a,1,1.0753506,None,,,,,,p001,2026-04-14_11h58.44.848,Flanker Compatibility Task,,2026.1.1,118.8225634,2026-04-14 11h58.45.136358 +0800
2,square,incong,-10,a,0,72,72,0,a,1,0.6772603,None,,,,,0,72,72,60,119.7582666,,,,,,,,119.7533465,120.2540976,120.9337406,,,,,,,,,,,a,1,0.6772603,None,,,,,,p001,2026-04-14_11h58.44.848,Flanker Compatibility Task,,2026.1.1,118.8225634,2026-04-14 11h58.45.136358 +0800
2,diamond,incong,10,l,0,73,73,0,l,1,0.5870351,None,,,,,0,73,73,90,120.9410933,,,,,,,,120.9350803,121.4288905,122.0181946,,,,,,,,,,,l,1,0.5870351,None,,,,,,p001,2026-04-14_11h58.44.848,Flanker Compatibility Task,,2026.1.1,118.8225634,2026-04-14 11h58.45.136358 +0800
4,diamond,incong,10,l,2,74,74,0,l,1,1.0029629,None,,,,,0,74,74,188,122.0244048,,,,,,,,122.0196961,122.5203999,123.5260012,,,,,,,,,,,l,1,1.0029629,None,,,,,,p001,2026-04-14_11h58.44.848,Flanker Compatibility Task,,2026.1.1,118.8225634,2026-04-14 11h58.45.136358 +0800
3,square,cong,-10,a,1,75,75,0,a,1,1.0293341,None,,,,,0,75,75,97,123.5323962,,,,,,,,123.527502,124.0262224,125.0587684,,,,,,,,,,,a,1,1.0293341,None,,,,,,p001,2026-04-14_11h58.44.848,Flanker Compatibility Task,,2026.1.1,118.8225634,2026-04-14 11h58.45.136358 +0800
2,diamond,cong,10,l,5,76,76,0,l,1,0.6929177,None,,,,,0,76,76,83,125.0653744,,,,,,,,125.0601951,125.553441,126.2489185,,,,,,,,,,,l,1,0.6929177,None,,,,,,p001,2026-04-14_11h58.44.848,Flanker Compatibility Task,,2026.1.1,118.8225634,2026-04-14 11h58.45.136358 +0800
3,square,incong,10,a,2,77,77,0,a,1,0.6839584,None,,,,,0,77,77,116,126.2566116,,,,,,,,126.2502268,126.744,127.4326088,,,,,,,,,,,a,1,0.6839584,None,,,,,,p001,2026-04-14_11h58.44.848,Flanker Compatibility Task,,2026.1.1,118.8225634,2026-04-14 11h58.45.136358 +0800
2,square,cong,10,a,0,78,78,0,a,1,0.5041091,None,,,,,0,78,78,54,127.4396565,,,,,,,,127.4338718,127.9269879,128.4323567,,,,,,,,,,,a,1,0.5041091,None,,,,,,p001,2026-04-14_11h58.44.848,Flanker Compatibility Task,,2026.1.1,118.8225634,2026-04-14 11h58.45.136358 +0800
4,diamond,cong,-10,l,2,79,79,0,l,1,0.733587,None,,,,,0,79,79,170,128.4393342,,,,,,,,128.4338633,128.9247076,129.6648469,,,,,,,,,,,l,1,0.733587,None,,,,,,p001,2026-04-14_11h58.44.848,Flanker Compatibility Task,,2026.1.1,118.8225634,2026-04-14 11h58.45.136358 +0800
2,square,cong,10,a,3,80,80,0,a,1,0.6142563,None,,,,,0,80,80,57,129.6736076,,,,,,,,129.6660673,130.1598796,130.7813715,,,,,,,,,,,a,1,0.6142563,None,,,,,,p001,2026-04-14_11h58.44.848,Flanker Compatibility Task,,2026.1.1,118.8225634,2026-04-14 11h58.45.136358 +0800
3,diamond,incong,-10,l,3,81,81,0,l,1,0.4962006,None,,,,,0,81,81,135,130.7890839,,,,,,,,130.7827001,131.276908,131.7810226,,,,,,,,,,,l,1,0.4962006,None,,,,,,p001,2026-04-14_11h58.44.848,Flanker Compatibility Task,,2026.1.1,118.8225634,2026-04-14 11h58.45.136358 +0800
2,diamond,incong,-10,l,1,82,82,0,a,0,0.6187285,None,,,,,0,82,82,85,131.7891213,,,,,,,,131.7822357,132.2756624,132.8988342,,,,,,,,,,,a,0,0.6187285,None,,,,,,p001,2026-04-14_11h58.44.848,Flanker Compatibility Task,,2026.1.1,118.8225634,2026-04-14 11h58.45.136358 +0800
4,square,incong,10,a,0,83,83,0,a,1,0.881734,None,,,,,0,83,83,162,132.9050403,,,,,,,,132.9003734,133.402037,134.288745,,,,,,,,,,,a,1,0.881734,None,,,,,,p001,2026-04-14_11h58.44.848,Flanker Compatibility Task,,2026.1.1,118.8225634,2026-04-14 11h58.45.136358 +0800
2,square,cong,-10,a,0,84,84,0,a,1,0.4724096,None,,,,,0,84,84,48,134.2973004,,,,,,,,134.2899819,134.7845256,135.2633074,,,,,,,,,,,a,1,0.4724096,None,,,,,,p001,2026-04-14_11h58.44.848,Flanker Compatibility Task,,2026.1.1,118.8225634,2026-04-14 11h58.45.136358 +0800
1,square,cong,-10,a,2,85,85,0,a,1,0.5019457,None,,,,,0,85,85,2,135.2709188,,,,,,,,135.2650681,135.7584282,136.2631385,,,,,,,,,,,a,1,0.5019457,None,,,,,,p001,2026-04-14_11h58.44.848,Flanker Compatibility Task,,2026.1.1,118.8225634,2026-04-14 11h58.45.136358 +0800
4,square,cong,10,a,2,86,86,0,a,1,0.7253633,None,,,,,0,86,86,152,136.2707132,,,,,,,,136.2641889,136.7587719,137.4882671,,,,,,,,,,,a,1,0.7253633,None,,,,,,p001,2026-04-14_11h58.44.848,Flanker Compatibility Task,,2026.1.1,118.8225634,2026-04-14 11h58.45.136358 +0800
3,diamond,cong,-10,l,2,87,87,0,l,1,0.9691737,None,,,,,0,87,87,122,137.4955913,,,,,,,,137.4895838,137.9835846,138.9556478,,,,,,,,,,,l,1,0.9691737,None,,,,,,p001,2026-04-14_11h58.44.848,Flanker Compatibility Task,,2026.1.1,118.8225634,2026-04-14 11h58.45.136358 +0800
4,square,incong,10,a,3,88,88,0,a,1,0.685214,None,,,,,0,88,88,165,138.9618769,,,,,,,,138.957148,139.4586462,140.1454327,,,,,,,,,,,a,1,0.685214,None,,,,,,p001,2026-04-14_11h58.44.848,Flanker Compatibility Task,,2026.1.1,118.8225634,2026-04-14 11h58.45.136358 +0800
4,square,incong,10,a,5,89,89,0,a,1,0.6630802,None,,,,,0,89,89,167,140.1534241,,,,,,,,140.1468741,140.6388355,141.3041891,,,,,,,,,,,a,1,0.6630802,None,,,,,,p001,2026-04-14_11h58.44.848,Flanker Compatibility Task,,2026.1.1,118.8225634,2026-04-14 11h58.45.136358 +0800
2,square,incong,-10,a,3,90,90,0,l,0,0.6859123,None,,,,,0,90,90,63,141.3117716,,,,,,,,141.3051239,141.802466,142.4952403,,,,,,,,,,,l,0,0.6859123,None,,,,,,p001,2026-04-14_11h58.44.848,Flanker Compatibility Task,,2026.1.1,118.8225634,2026-04-14 11h58.45.136358 +0800
4,diamond,cong,-10,l,1,91,91,0,l,1,0.7361015,None,,,,,0,91,91,169,142.5026248,,,,,,,,142.4963517,142.9908215,143.7284279,,,,,,,,,,,l,1,0.7361015,None,,,,,,p001,2026-04-14_11h58.44.848,Flanker Compatibility Task,,2026.1.1,118.8225634,2026-04-14 11h58.45.136358 +0800
3,diamond,incong,10,l,3,92,92,0,l,1,0.8359969,None,,,,,0,92,92,141,143.7359288,,,,,,,,143.7295173,144.2229585,145.0620489,,,,,,,,,,,l,1,0.8359969,None,,,,,,p001,2026-04-14_11h58.44.848,Flanker Compatibility Task,,2026.1.1,118.8225634,2026-04-14 11h58.45.136358 +0800
3,diamond,incong,-10,l,5,93,93,0,l,1,0.8298477,None,,,,,0,93,93,137,145.0687922,,,,,,,,145.0632757,145.5634219,146.3945417,,,,,,,,,,,l,1,0.8298477,None,,,,,,p001,2026-04-14_11h58.44.848,Flanker Compatibility Task,,2026.1.1,118.8225634,2026-04-14 11h58.45.136358 +0800
1,diamond,cong,10,l,3,94,94,0,l,1,0.5437173,None,,,,,0,94,94,33,146.4017214,,,,,,,,146.395822,146.8876454,147.4366506,,,,,,,,,,,l,1,0.5437173,None,,,,,,p001,2026-04-14_11h58.44.848,Flanker Compatibility Task,,2026.1.1,118.8225634,2026-04-14 11h58.45.136358 +0800
1,diamond,incong,10,l,0,95,95,0,l,1,0.4071655,None,,,,,0,95,95,42,147.4431484,,,,,,,,147.4379559,147.938269,148.3525159,,,,,,,,,,,l,1,0.4071655,None,,,,,,p001,2026-04-14_11h58.44.848,Flanker Compatibility Task,,2026.1.1,118.8225634,2026-04-14 11h58.45.136358 +0800
3,square,incong,-10,a,1,96,96,0,a,1,0.5874652,None,,,,,0,96,96,109,148.3601874,,,,,,,,148.3538616,148.8461531,149.4360117,,,,,,,,,,,a,1,0.5874652,None,,,,,,p001,2026-04-14_11h58.44.848,Flanker Compatibility Task,,2026.1.1,118.8225634,2026-04-14 11h58.45.136358 +0800
1,square,cong,10,a,1,97,97,0,a,1,0.4218737,None,,,,,0,97,97,7,149.4428153,,,,,,,,149.4372567,149.9306046,150.3598412,,,,,,,,,,,a,1,0.4218737,None,,,,,,p001,2026-04-14_11h58.44.848,Flanker Compatibility Task,,2026.1.1,118.8225634,2026-04-14 11h58.45.136358 +0800
4,square,cong,-10,a,4,98,98,0,a,1,0.64048,None,,,,,0,98,98,148,150.3680071,,,,,,,,150.3612867,150.8546963,151.5014108,,,,,,,,,,,a,1,0.64048,None,,,,,,p001,2026-04-14_11h58.44.848,Flanker Compatibility Task,,2026.1.1,118.8225634,2026-04-14 11h58.45.136358 +0800
1,square,incong,10,a,4,99,99,0,a,1,0.3953026,None,,,,,0,99,99,22,151.5085334,,,,,,,,151.5025583,151.9963698,152.3935626,,,,,,,,,,,a,1,0.3953026,None,,,,,,p001,2026-04-14_11h58.44.848,Flanker Compatibility Task,,2026.1.1,118.8225634,2026-04-14 11h58.45.136358 +0800
1,square,cong,-10,a,1,100,100,0,a,1,0.4610796,None,,,,,0,100,100,1,152.4003992,,,,,,,,152.3948546,152.8866552,153.3514075,,,,,,,,,,,a,1,0.4610796,None,,,,,,p001,2026-04-14_11h58.44.848,Flanker Compatibility Task,,2026.1.1,118.8225634,2026-04-14 11h58.45.136358 +0800
1,diamond,cong,10,l,1,101,101,0,l,1,0.4575731,None,,,,,0,101,101,31,153.3589727,,,,,,,,153.352697,153.8538661,154.3171432,,,,,,,,,,,l,1,0.4575731,None,,,,,,p001,2026-04-14_11h58.44.848,Flanker Compatibility Task,,2026.1.1,118.8225634,2026-04-14 11h58.45.136358 +0800
2,diamond,incong,-10,l,0,102,102,0,a,0,0.4235037,None,,,,,0,102,102,84,154.3256981,,,,,,,,154.3183647,154.8119417,155.2429267,,,,,,,,,,,a,0,0.4235037,None,,,,,,p001,2026-04-14_11h58.44.848,Flanker Compatibility Task,,2026.1.1,118.8225634,2026-04-14 11h58.45.136358 +0800
2,diamond,incong,10,l,4,103,103,0,l,1,0.9728169,None,,,,,0,103,103,94,155.2501648,,,,,,,,155.2442722,155.7445854,156.7181683,,,,,,,,,,,l,1,0.9728169,None,,,,,,p001,2026-04-14_11h58.44.848,Flanker Compatibility Task,,2026.1.1,118.8225634,2026-04-14 11h58.45.136358 +0800
4,square,incong,-10,a,2,104,104,0,a,1,0.7510017,None,,,,,0,104,104,158,156.7243613,,,,,,,,156.7198091,157.2185349,157.9745669,,,,,,,,,,,a,1,0.7510017,None,,,,,,p001,2026-04-14_11h58.44.848,Flanker Compatibility Task,,2026.1.1,118.8225634,2026-04-14 11h58.45.136358 +0800
4,diamond,incong,-10,l,5,105,105,0,l,1,1.2051297,None,,,,,0,105,105,185,157.9829404,,,,,,,,157.9760183,158.4702712,159.6764003,,,,,,,,,,,l,1,1.2051297,None,,,,,,p001,2026-04-14_11h58.44.848,Flanker Compatibility Task,,2026.1.1,118.8225634,2026-04-14 11h58.45.136358 +0800
2,square,incong,-10,a,1,106,106,0,a,1,0.610816,None,,,,,0,106,106,61,159.6824387,,,,,,,,159.6777031,160.1764573,160.7909254,,,,,,,,,,,a,1,0.610816,None,,,,,,p001,2026-04-14_11h58.44.848,Flanker Compatibility Task,,2026.1.1,118.8225634,2026-04-14 11h58.45.136358 +0800
1,diamond,incong,10,l,3,107,107,0,l,1,0.672448,None,,,,,0,107,107,45,160.7982647,,,,,,,,160.7921039,161.2849053,161.9659306,,,,,,,,,,,l,1,0.672448,None,,,,,,p001,2026-04-14_11h58.44.848,Flanker Compatibility Task,,2026.1.1,118.8225634,2026-04-14 11h58.45.136358 +0800
1,square,cong,10,a,3,108,108,0,l,0,0.6212264,None,,,,,0,108,108,9,161.9732096,,,,,,,,161.9671783,162.4593601,163.0828801,,,,,,,,,,,l,0,0.6212264,None,,,,,,p001,2026-04-14_11h58.44.848,Flanker Compatibility Task,,2026.1.1,118.8225634,2026-04-14 11h58.45.136358 +0800
1,diamond,incong,-10,l,5,109,109,0,l,1,0.7122165,None,,,,,0,109,109,41,163.0893101,,,,,,,,163.0841603,163.5849477,164.2991371,,,,,,,,,,,l,1,0.7122165,None,,,,,,p001,2026-04-14_11h58.44.848,Flanker Compatibility Task,,2026.1.1,118.8225634,2026-04-14 11h58.45.136358 +0800
1,diamond,incong,10,l,2,110,110,0,a,0,0.6517124,None,,,,,0,110,110,44,164.3053018,,,,,,,,164.3004502,164.8021543,165.4566247,,,,,,,,,,,a,0,0.6517124,None,,,,,,p001,2026-04-14_11h58.44.848,Flanker Compatibility Task,,2026.1.1,118.8225634,2026-04-14 11h58.45.136358 +0800
4,diamond,incong,10,l,3,111,111,0,l,1,1.0107496,None,,,,,0,111,111,189,165.4644127,,,,,,,,165.4581535,165.951568,166.9650912,,,,,,,,,,,l,1,1.0107496,None,,,,,,p001,2026-04-14_11h58.44.848,Flanker Compatibility Task,,2026.1.1,118.8225634,2026-04-14 11h58.45.136358 +0800
3,diamond,cong,-10,l,0,112,112,0,l,1,0.6384559,None,,,,,0,112,112,120,166.9716762,,,,,,,,166.9665441,167.4598204,168.1064578,,,,,,,,,,,l,1,0.6384559,None,,,,,,p001,2026-04-14_11h58.44.848,Flanker Compatibility Task,,2026.1.1,118.8225634,2026-04-14 11h58.45.136358 +0800
1,square,cong,-10,a,0,113,113,0,a,1,0.5418583,None,,,,,0,113,113,0,168.1136593,,,,,,,,168.1077248,168.6081166,169.155346,,,,,,,,,,,a,1,0.5418583,None,,,,,,p001,2026-04-14_11h58.44.848,Flanker Compatibility Task,,2026.1.1,118.8225634,2026-04-14 11h58.45.136358 +0800
2,square,cong,-10,a,3,114,114,0,a,1,0.8354282,None,,,,,0,114,114,51,169.1628558,,,,,,,,169.1563444,169.6499734,170.4885538,,,,,,,,,,,a,1,0.8354282,None,,,,,,p001,2026-04-14_11h58.44.848,Flanker Compatibility Task,,2026.1.1,118.8225634,2026-04-14 11h58.45.136358 +0800
2,diamond,cong,-10,l,1,115,115,0,l,1,0.7874873,None,,,,,0,115,115,73,170.4956891,,,,,,,,170.4895879,170.9827476,171.7712814,,,,,,,,,,,l,1,0.7874873,None,,,,,,p001,2026-04-14_11h58.44.848,Flanker Compatibility Task,,2026.1.1,118.8225634,2026-04-14 11h58.45.136358 +0800
4,diamond,incong,10,l,4,116,116,0,a,0,1.0900909,None,,,,,0,116,116,190,171.778784,,,,,,,,171.7727085,172.2723617,173.3636868,,,,,,,,,,,a,0,1.0900909,None,,,,,,p001,2026-04-14_11h58.44.848,Flanker Compatibility Task,,2026.1.1,118.8225634,2026-04-14 11h58.45.136358 +0800
3,diamond,incong,10,l,4,117,117,0,l,1,1.5489751,None,,,,,0,117,117,142,173.3709375,,,,,,,,173.3651206,173.864318,175.4212102,,,,,,,,,,,l,1,1.5489751,None,,,,,,p001,2026-04-14_11h58.44.848,Flanker Compatibility Task,,2026.1.1,118.8225634,2026-04-14 11h58.45.136358 +0800
2,diamond,incong,10,l,2,118,118,0,l,1,0.7513919,None,,,,,0,118,118,92,175.428665,,,,,,,,175.4224234,175.9220676,176.6789581,,,,,,,,,,,l,1,0.7513919,None,,,,,,p001,2026-04-14_11h58.44.848,Flanker Compatibility Task,,2026.1.1,118.8225634,2026-04-14 11h58.45.136358 +0800
1,diamond,cong,-10,l,0,119,119,0,l,1,0.5484764,None,,,,,0,119,119,24,176.6868539,,,,,,,,176.6801383,177.1731687,177.7291685,,,,,,,,,,,l,1,0.5484764,None,,,,,,p001,2026-04-14_11h58.44.848,Flanker Compatibility Task,,2026.1.1,118.8225634,2026-04-14 11h58.45.136358 +0800
1,diamond,incong,10,l,4,120,120,0,l,1,0.8231594,None,,,,,0,120,120,46,177.7362668,,,,,,,,177.7303343,178.2229509,179.0531015,,,,,,,,,,,l,1,0.8231594,None,,,,,,p001,2026-04-14_11h58.44.848,Flanker Compatibility Task,,2026.1.1,118.8225634,2026-04-14 11h58.45.136358 +0800
3,square,cong,10,a,2,121,121,0,a,1,0.7340642,None,,,,,0,121,121,104,179.0611341,,,,,,,,179.0544566,179.548186,180.2923846,,,,,,,,,,,a,1,0.7340642,None,,,,,,p001,2026-04-14_11h58.44.848,Flanker Compatibility Task,,2026.1.1,118.8225634,2026-04-14 11h58.45.136358 +0800
2,square,cong,10,a,4,122,122,0,a,1,0.8541681,None,,,,,0,122,122,58,180.3061682,,,,,,,,180.295011,180.7874806,181.6441741,,,,,,,,,,,a,1,0.8541681,None,,,,,,p001,2026-04-14_11h58.44.848,Flanker Compatibility Task,,2026.1.1,118.8225634,2026-04-14 11h58.45.136358 +0800
4,diamond,cong,-10,l,5,123,123,0,l,1,1.1092634,None,,,,,0,123,123,173,181.6516233,,,,,,,,181.6455665,182.1383742,183.2514795,,,,,,,,,,,l,1,1.1092634,None,,,,,,p001,2026-04-14_11h58.44.848,Flanker Compatibility Task,,2026.1.1,118.8225634,2026-04-14 11h58.45.136358 +0800
3,diamond,incong,10,l,5,124,124,0,l,1,0.7312383,None,,,,,0,124,124,143,183.2596816,,,,,,,,183.252539,183.7471669,184.4857198,,,,,,,,,,,l,1,0.7312383,None,,,,,,p001,2026-04-14_11h58.44.848,Flanker Compatibility Task,,2026.1.1,118.8225634,2026-04-14 11h58.45.136358 +0800
3,square,cong,-10,a,3,125,125,0,a,1,1.1440588,None,,,,,0,125,125,99,184.4930892,,,,,,,,184.4872511,184.9885412,186.1353905,,,,,,,,,,,a,1,1.1440588,None,,,,,,p001,2026-04-14_11h58.44.848,Flanker Compatibility Task,,2026.1.1,118.8225634,2026-04-14 11h58.45.136358 +0800
3,diamond,cong,-10,l,3,126,126,0,l,1,0.7808507,None,,,,,0,126,126,123,186.1418558,,,,,,,,186.1368249,186.6367026,187.4258661,,,,,,,,,,,l,1,0.7808507,None,,,,,,p001,2026-04-14_11h58.44.848,Flanker Compatibility Task,,2026.1.1,118.8225634,2026-04-14 11h58.45.136358 +0800
3,diamond,cong,10,l,3,127,127,0,a,0,0.9551716,None,,,,,0,127,127,129,187.4329951,,,,,,,,187.4272814,187.9211554,188.8852961,,,,,,,,,,,a,0,0.9551716,None,,,,,,p001,2026-04-14_11h58.44.848,Flanker Compatibility Task,,2026.1.1,118.8225634,2026-04-14 11h58.45.136358 +0800
2,diamond,cong,10,l,1,128,128,0,l,1,0.7902753,None,,,,,0,128,128,79,188.8926155,,,,,,,,188.8866556,189.3870858,190.1849206,,,,,,,,,,,l,1,0.7902753,None,,,,,,p001,2026-04-14_11h58.44.848,Flanker Compatibility Task,,2026.1.1,118.8225634,2026-04-14 11h58.45.136358 +0800
1,diamond,incong,-10,l,2,129,129,0,l,1,0.6648634,None,,,,,0,129,129,38,190.1914927,,,,,,,,190.1863473,190.6871298,191.3579052,,,,,,,,,,,l,1,0.6648634,None,,,,,,p001,2026-04-14_11h58.44.848,Flanker Compatibility Task,,2026.1.1,118.8225634,2026-04-14 11h58.45.136358 +0800
3,square,cong,10,a,3,130,130,0,a,1,1.2703582,None,,,,,0,130,130,105,191.3655132,,,,,,,,191.3589626,191.8534815,193.1254881,,,,,,,,,,,a,1,1.2703582,None,,,,,,p001,2026-04-14_11h58.44.848,Flanker Compatibility Task,,2026.1.1,118.8225634,2026-04-14 11h58.45.136358 +0800
3,square,incong,-10,a,5,131,131,0,l,0,0.9655006,None,,,,,0,131,131,113,193.1318372,,,,,,,,193.1268942,193.6268044,194.5993229,,,,,,,,,,,l,0,0.9655006,None,,,,,,p001,2026-04-14_11h58.44.848,Flanker Compatibility Task,,2026.1.1,118.8225634,2026-04-14 11h58.45.136358 +0800
4,square,cong,10,a,0,132,132,0,a,1,0.8061286,None,,,,,0,132,132,150,194.6076034,,,,,,,,194.6007842,195.0952918,195.9070943,,,,,,,,,,,a,1,0.8061286,None,,,,,,p001,2026-04-14_11h58.44.848,Flanker Compatibility Task,,2026.1.1,118.8225634,2026-04-14 11h58.45.136358 +0800
2,diamond,incong,-10,l,4,133,133,0,l,1,0.7745182,None,,,,,0,133,133,88,195.9144303,,,,,,,,195.9080543,196.4021021,197.1826582,,,,,,,,,,,l,1,0.7745182,None,,,,,,p001,2026-04-14_11h58.44.848,Flanker Compatibility Task,,2026.1.1,118.8225634,2026-04-14 11h58.45.136358 +0800
1,square,incong,-10,a,0,134,134,0,a,1,0.5687697,None,,,,,0,134,134,12,197.190244,,,,,,,,197.1840098,197.6806804,198.2570638,,,,,,,,,,,a,1,0.5687697,None,,,,,,p001,2026-04-14_11h58.44.848,Flanker Compatibility Task,,2026.1.1,118.8225634,2026-04-14 11h58.45.136358 +0800
4,diamond,incong,-10,l,1,135,135,0,l,1,1.2856573,None,,,,,0,135,135,181,198.2647756,,,,,,,,198.2585845,198.7581725,200.0483323,,,,,,,,,,,l,1,1.2856573,None,,,,,,p001,2026-04-14_11h58.44.848,Flanker Compatibility Task,,2026.1.1,118.8225634,2026-04-14 11h58.45.136358 +0800
1,square,cong,-10,a,4,136,136,0,a,1,0.5739065,None,,,,,0,136,136,4,200.0558748,,,,,,,,200.0493508,200.542753,201.1232827,,,,,,,,,,,a,1,0.5739065,None,,,,,,p001,2026-04-14_11h58.44.848,Flanker Compatibility Task,,2026.1.1,118.8225634,2026-04-14 11h58.45.136358 +0800
4,diamond,cong,10,l,2,137,137,0,l,1,1.13415,None,,,,,0,137,137,176,201.1318722,,,,,,,,201.1248135,201.6264228,202.7645144,,,,,,,,,,,l,1,1.13415,None,,,,,,p001,2026-04-14_11h58.44.848,Flanker Compatibility Task,,2026.1.1,118.8225634,2026-04-14 11h58.45.136358 +0800
3,square,incong,10,a,1,138,138,0,l,0,1.8141005,None,,,,,0,138,138,115,202.7709767,,,,,,,,202.7659629,203.2592482,205.0796771,,,,,,,,,,,l,0,1.8141005,None,,,,,,p001,2026-04-14_11h58.44.848,Flanker Compatibility Task,,2026.1.1,118.8225634,2026-04-14 11h58.45.136358 +0800
2,diamond,incong,10,l,5,139,139,0,l,1,0.9242192,None,,,,,0,139,139,95,205.0880076,,,,,,,,205.0809013,205.5749991,206.5055404,,,,,,,,,,,l,1,0.9242192,None,,,,,,p001,2026-04-14_11h58.44.848,Flanker Compatibility Task,,2026.1.1,118.8225634,2026-04-14 11h58.45.136358 +0800
3,square,incong,10,a,4,140,140,0,a,1,0.7651895,None,,,,,0,140,140,118,206.5119145,,,,,,,,206.5070089,207.007021,207.7788919,,,,,,,,,,,a,1,0.7651895,None,,,,,,p001,2026-04-14_11h58.44.848,Flanker Compatibility Task,,2026.1.1,118.8225634,2026-04-14 11h58.45.136358 +0800
2,diamond,cong,10,l,4,141,141,0,l,1,1.1384772,None,,,,,0,141,141,82,207.786633,,,,,,,,207.7801102,208.2720931,209.4118978,,,,,,,,,,,l,1,1.1384772,None,,,,,,p001,2026-04-14_11h58.44.848,Flanker Compatibility Task,,2026.1.1,118.8225634,2026-04-14 11h58.45.136358 +0800
4,square,incong,10,a,4,142,142,0,a,1,1.2868871,None,,,,,0,142,142,166,209.4195326,,,,,,,,209.4132238,209.9078001,211.2047562,,,,,,,,,,,a,1,1.2868871,None,,,,,,p001,2026-04-14_11h58.44.848,Flanker Compatibility Task,,2026.1.1,118.8225634,2026-04-14 11h58.45.136358 +0800
1,square,cong,10,a,2,143,143,0,a,1,0.5561372,None,,,,,0,143,143,8,211.2114169,,,,,,,,211.2061201,211.7066283,212.2693096,,,,,,,,,,,a,1,0.5561372,None,,,,,,p001,2026-04-14_11h58.44.848,Flanker Compatibility Task,,2026.1.1,118.8225634,2026-04-14 11h58.45.136358 +0800
4,square,cong,10,a,4,144,144,0,a,1,0.6691469,None,,,,,0,144,144,154,212.2778947,,,,,,,,212.2707514,212.7654818,213.4359549,,,,,,,,,,,a,1,0.6691469,None,,,,,,p001,2026-04-14_11h58.44.848,Flanker Compatibility Task,,2026.1.1,118.8225634,2026-04-14 11h58.45.136358 +0800
1,square,incong,-10,a,4,145,145,0,a,1,0.4917922,None,,,,,0,145,145,16,213.4436139,,,,,,,,213.4372048,213.9307414,214.4289027,,,,,,,,,,,a,1,0.4917922,None,,,,,,p001,2026-04-14_11h58.44.848,Flanker Compatibility Task,,2026.1.1,118.8225634,2026-04-14 11h58.45.136358 +0800
4,square,incong,-10,a,0,146,146,0,a,1,0.6190788,None,,,,,0,146,146,156,214.4351962,,,,,,,,214.4304801,214.9308947,215.5528073,,,,,,,,,,,a,1,0.6190788,None,,,,,,p001,2026-04-14_11h58.44.848,Flanker Compatibility Task,,2026.1.1,118.8225634,2026-04-14 11h58.45.136358 +0800
2,diamond,cong,-10,l,0,147,147,0,a,0,0.3788102,None,,,,,0,147,147,72,215.5595669,,,,,,,,215.5547425,216.0566251,216.4432424,,,,,,,,,,,a,0,0.3788102,None,,,,,,p001,2026-04-14_11h58.44.848,Flanker Compatibility Task,,2026.1.1,118.8225634,2026-04-14 11h58.45.136358 +0800
2,square,cong,10,a,2,148,148,0,a,1,0.8204535,None,,,,,0,148,148,56,216.4509583,,,,,,,,216.4445423,216.9385811,217.7597104,,,,,,,,,,,a,1,0.8204535,None,,,,,,p001,2026-04-14_11h58.44.848,Flanker Compatibility Task,,2026.1.1,118.8225634,2026-04-14 11h58.45.136358 +0800
1,square,incong,10,a,5,149,149,0,a,1,0.5674312,None,,,,,0,149,149,23,217.7670175,,,,,,,,217.7606681,218.254591,218.827781,,,,,,,,,,,a,1,0.5674312,None,,,,,,p001,2026-04-14_11h58.44.848,Flanker Compatibility Task,,2026.1.1,118.8225634,2026-04-14 11h58.45.136358 +0800
2,square,cong,-10,a,2,150,150,0,a,1,0.9612541,None,,,,,0,150,150,50,218.8337315,,,,,,,,218.829114,219.3292865,220.293125,,,,,,,,,,,a,1,0.9612541,None,,,,,,p001,2026-04-14_11h58.44.848,Flanker Compatibility Task,,2026.1.1,118.8225634,2026-04-14 11h58.45.136358 +0800
2,square,incong,10,a,4,151,151,0,a,1,0.6295636,None,,,,,0,151,151,70,220.3000026,,,,,,,,220.2944626,220.7874181,221.4177412,,,,,,,,,,,a,1,0.6295636,None,,,,,,p001,2026-04-14_11h58.44.848,Flanker Compatibility Task,,2026.1.1,118.8225634,2026-04-14 11h58.45.136358 +0800
1,diamond,cong,10,l,4,152,152,0,l,1,0.4186797,None,,,,,0,152,152,34,221.4247699,,,,,,,,221.4189138,221.9127519,222.3345666,,,,,,,,,,,l,1,0.4186797,None,,,,,,p001,2026-04-14_11h58.44.848,Flanker Compatibility Task,,2026.1.1,118.8225634,2026-04-14 11h58.45.136358 +0800
4,diamond,cong,10,l,4,153,153,0,l,1,1.3714919,None,,,,,0,153,153,178,222.3413478,,,,,,,,222.3357468,222.8382861,224.2165399,,,,,,,,,,,l,1,1.3714919,None,,,,,,p001,2026-04-14_11h58.44.848,Flanker Compatibility Task,,2026.1.1,118.8225634,2026-04-14 11h58.45.136358 +0800
2,diamond,cong,-10,l,5,154,154,0,l,1,0.6096177,None,,,,,0,154,154,77,224.2243368,,,,,,,,224.2178072,224.7175729,225.3331943,,,,,,,,,,,l,1,0.6096177,None,,,,,,p001,2026-04-14_11h58.44.848,Flanker Compatibility Task,,2026.1.1,118.8225634,2026-04-14 11h58.45.136358 +0800
2,square,incong,10,a,5,155,155,0,l,0,2.0784872,None,,,,,0,155,155,71,225.3407257,,,,,,,,225.3344504,225.8278155,227.9078637,,,,,,,,,,,l,0,2.0784872,None,,,,,,p001,2026-04-14_11h58.44.848,Flanker Compatibility Task,,2026.1.1,118.8225634,2026-04-14 11h58.45.136358 +0800
2,diamond,cong,10,l,3,156,156,0,l,1,1.1829619,None,,,,,0,156,156,81,227.9147719,,,,,,,,227.9091724,228.4105247,229.5993822,,,,,,,,,,,l,1,1.1829619,None,,,,,,p001,2026-04-14_11h58.44.848,Flanker Compatibility Task,,2026.1.1,118.8225634,2026-04-14 11h58.45.136358 +0800
3,square,cong,10,a,0,157,157,0,a,1,0.7925442,None,,,,,0,157,157,102,229.6062695,,,,,,,,229.6011888,230.0933117,230.8908374,,,,,,,,,,,a,1,0.7925442,None,,,,,,p001,2026-04-14_11h58.44.848,Flanker Compatibility Task,,2026.1.1,118.8225634,2026-04-14 11h58.45.136358 +0800
3,diamond,cong,10,l,1,158,158,0,l,1,1.4221169,None,,,,,0,158,158,127,230.8973116,,,,,,,,230.8923395,231.3844076,232.8077147,,,,,,,,,,,l,1,1.4221169,None,,,,,,p001,2026-04-14_11h58.44.848,Flanker Compatibility Task,,2026.1.1,118.8225634,2026-04-14 11h58.45.136358 +0800
1,diamond,incong,-10,l,0,159,159,0,l,1,0.6531215,None,,,,,0,159,159,36,232.8136597,,,,,,,,232.8089564,233.3098997,233.965108,,,,,,,,,,,l,1,0.6531215,None,,,,,,p001,2026-04-14_11h58.44.848,Flanker Compatibility Task,,2026.1.1,118.8225634,2026-04-14 11h58.45.136358 +0800
4,diamond,cong,-10,l,4,160,160,0,l,1,1.7644165,None,,,,,0,160,160,172,233.9720847,,,,,,,,233.9666617,234.4599944,236.2303893,,,,,,,,,,,l,1,1.7644165,None,,,,,,p001,2026-04-14_11h58.44.848,Flanker Compatibility Task,,2026.1.1,118.8225634,2026-04-14 11h58.45.136358 +0800
3,diamond,incong,10,l,1,161,161,0,l,1,2.3158817,None,,,,,0,161,161,139,236.2384171,,,,,,,,236.2318977,236.7260289,239.0474157,,,,,,,,,,,l,1,2.3158817,None,,,,,,p001,2026-04-14_11h58.44.848,Flanker Compatibility Task,,2026.1.1,118.8225634,2026-04-14 11h58.45.136358 +0800
4,diamond,cong,10,l,0,162,162,0,l,1,1.4456499,None,,,,,0,162,162,174,239.0537955,,,,,,,,239.0489738,239.5507786,241.0045735,,,,,,,,,,,l,1,1.4456499,None,,,,,,p001,2026-04-14_11h58.44.848,Flanker Compatibility Task,,2026.1.1,118.8225634,2026-04-14 11h58.45.136358 +0800
4,diamond,incong,10,l,1,163,163,0,l,1,0.7181953,None,,,,,0,163,163,187,241.0116367,,,,,,,,241.0063427,241.5000223,242.2213576,,,,,,,,,,,l,1,0.7181953,None,,,,,,p001,2026-04-14_11h58.44.848,Flanker Compatibility Task,,2026.1.1,118.8225634,2026-04-14 11h58.45.136358 +0800
1,square,incong,10,a,0,164,164,0,a,1,0.6644834,None,,,,,0,164,164,18,242.2279339,,,,,,,,242.2226188,242.7148706,243.3867773,,,,,,,,,,,a,1,0.6644834,None,,,,,,p001,2026-04-14_11h58.44.848,Flanker Compatibility Task,,2026.1.1,118.8225634,2026-04-14 11h58.45.136358 +0800
2,diamond,incong,-10,l,2,165,165,0,l,1,0.9953378,None,,,,,0,165,165,86,243.3943548,,,,,,,,243.3879468,243.8821501,244.8792102,,,,,,,,,,,l,1,0.9953378,None,,,,,,p001,2026-04-14_11h58.44.848,Flanker Compatibility Task,,2026.1.1,118.8225634,2026-04-14 11h58.45.136358 +0800
2,square,incong,-10,a,4,166,166,0,a,1,0.8321325,None,,,,,0,166,166,64,244.8854482,,,,,,,,244.8805303,245.379848,246.2127097,,,,,,,,,,,a,1,0.8321325,None,,,,,,p001,2026-04-14_11h58.44.848,Flanker Compatibility Task,,2026.1.1,118.8225634,2026-04-14 11h58.45.136358 +0800
1,diamond,cong,-10,l,4,167,167,0,a,0,0.4463222,None,,,,,0,167,167,28,246.2184831,,,,,,,,246.2139844,246.7144962,247.161875,,,,,,,,,,,a,0,0.4463222,None,,,,,,p001,2026-04-14_11h58.44.848,Flanker Compatibility Task,,2026.1.1,118.8225634,2026-04-14 11h58.45.136358 +0800
1,diamond,incong,-10,l,3,168,168,0,l,1,0.7157664,None,,,,,0,168,168,39,247.1684877,,,,,,,,247.1631331,247.6557106,248.3767343,,,,,,,,,,,l,1,0.7157664,None,,,,,,p001,2026-04-14_11h58.44.848,Flanker Compatibility Task,,2026.1.1,118.8225634,2026-04-14 11h58.45.136358 +0800
4,square,incong,-10,a,1,169,169,0,a,1,0.7437736,None,,,,,0,169,169,157,248.3844428,,,,,,,,248.3781588,248.8732425,249.618675,,,,,,,,,,,a,1,0.7437736,None,,,,,,p001,2026-04-14_11h58.44.848,Flanker Compatibility Task,,2026.1.1,118.8225634,2026-04-14 11h58.45.136358 +0800
3,diamond,incong,10,l,2,170,170,0,l,1,1.359187,None,,,,,0,170,170,140,249.6265607,,,,,,,,249.6199638,250.1196757,251.4845383,,,,,,,,,,,l,1,1.359187,None,,,,,,p001,2026-04-14_11h58.44.848,Flanker Compatibility Task,,2026.1.1,118.8225634,2026-04-14 11h58.45.136358 +0800
2,square,cong,10,a,5,171,171,0,a,1,0.6371445,None,,,,,0,171,171,59,251.4922351,,,,,,,,251.4859624,251.9786634,252.6179827,,,,,,,,,,,a,1,0.6371445,None,,,,,,p001,2026-04-14_11h58.44.848,Flanker Compatibility Task,,2026.1.1,118.8225634,2026-04-14 11h58.45.136358 +0800
3,diamond,incong,-10,l,4,172,172,0,l,1,1.5800494,None,,,,,0,172,172,136,252.6252009,,,,,,,,252.6193832,253.1119105,254.6931691,,,,,,,,,,,l,1,1.5800494,None,,,,,,p001,2026-04-14_11h58.44.848,Flanker Compatibility Task,,2026.1.1,118.8225634,2026-04-14 11h58.45.136358 +0800
2,diamond,incong,-10,l,3,173,173,0,l,1,0.8557713,None,,,,,0,173,173,87,254.6999854,,,,,,,,254.6944986,255.1882883,256.0503371,,,,,,,,,,,l,1,0.8557713,None,,,,,,p001,2026-04-14_11h58.44.848,Flanker Compatibility Task,,2026.1.1,118.8225634,2026-04-14 11h58.45.136358 +0800
2,diamond,cong,-10,l,3,174,174,0,l,1,0.6052598,None,,,,,0,174,174,75,256.0587116,,,,,,,,256.0515353,256.5456793,257.1517375,,,,,,,,,,,l,1,0.6052598,None,,,,,,p001,2026-04-14_11h58.44.848,Flanker Compatibility Task,,2026.1.1,118.8225634,2026-04-14 11h58.45.136358 +0800
1,diamond,cong,-10,l,2,175,175,0,l,1,0.5298571,None,,,,,0,175,175,26,257.1573299,,,,,,,,257.1530547,257.6489754,258.1843737,,,,,,,,,,,l,1,0.5298571,None,,,,,,p001,2026-04-14_11h58.44.848,Flanker Compatibility Task,,2026.1.1,118.8225634,2026-04-14 11h58.45.136358 +0800
3,square,cong,10,a,5,176,176,0,a,1,0.5791666,None,,,,,0,176,176,107,258.1905178,,,,,,,,258.1858042,258.6873824,259.26735,,,,,,,,,,,a,1,0.5791666,None,,,,,,p001,2026-04-14_11h58.44.848,Flanker Compatibility Task,,2026.1.1,118.8225634,2026-04-14 11h58.45.136358 +0800
2,square,incong,-10,a,2,177,177,0,a,1,0.6235772,None,,,,,0,177,177,62,259.2736587,,,,,,,,259.268734,259.7654099,260.3917547,,,,,,,,,,,a,1,0.6235772,None,,,,,,p001,2026-04-14_11h58.44.848,Flanker Compatibility Task,,2026.1.1,118.8225634,2026-04-14 11h58.45.136358 +0800
3,square,cong,10,a,1,178,178,0,a,1,1.9135937,None,,,,,0,178,178,103,260.3985678,,,,,,,,260.3932615,260.8854727,262.8066861,,,,,,,,,,,a,1,1.9135937,None,,,,,,p001,2026-04-14_11h58.44.848,Flanker Compatibility Task,,2026.1.1,118.8225634,2026-04-14 11h58.45.136358 +0800
2,square,cong,10,a,1,179,179,0,a,1,0.4863996,None,,,,,0,179,179,55,262.814988,,,,,,,,262.8079394,263.3028314,263.7906331,,,,,,,,,,,a,1,0.4863996,None,,,,,,p001,2026-04-14_11h58.44.848,Flanker Compatibility Task,,2026.1.1,118.8225634,2026-04-14 11h58.45.136358 +0800
4,square,cong,10,a,5,180,180,0,a,1,0.7006352,None,,,,,0,180,180,155,263.7978674,,,,,,,,263.792419,264.2853765,264.9909182,,,,,,,,,,,a,1,0.7006352,None,,,,,,p001,2026-04-14_11h58.44.848,Flanker Compatibility Task,,2026.1.1,118.8225634,2026-04-14 11h58.45.136358 +0800
2,square,cong,-10,a,4,181,181,0,a,1,0.7928704,None,,,,,0,181,181,52,264.9972452,,,,,,,,264.9922533,265.4933635,266.2909409,,,,,,,,,,,a,1,0.7928704,None,,,,,,p001,2026-04-14_11h58.44.848,Flanker Compatibility Task,,2026.1.1,118.8225634,2026-04-14 11h58.45.136358 +0800
1,diamond,cong,-10,l,1,182,182,0,l,1,0.6652219,None,,,,,0,182,182,25,266.2970719,,,,,,,,266.292357,266.7922789,267.4639545,,,,,,,,,,,l,1,0.6652219,None,,,,,,p001,2026-04-14_11h58.44.848,Flanker Compatibility Task,,2026.1.1,118.8225634,2026-04-14 11h58.45.136358 +0800
1,diamond,incong,-10,l,4,183,183,0,l,1,0.4772352,None,,,,,0,183,183,40,267.472293,,,,,,,,267.4653162,267.9585571,268.439713,,,,,,,,,,,l,1,0.4772352,None,,,,,,p001,2026-04-14_11h58.44.848,Flanker Compatibility Task,,2026.1.1,118.8225634,2026-04-14 11h58.45.136358 +0800
3,diamond,cong,-10,l,5,184,184,0,l,1,0.5992779,None,,,,,0,184,184,125,268.4464353,,,,,,,,268.4411743,268.9339753,269.5398273,,,,,,,,,,,l,1,0.5992779,None,,,,,,p001,2026-04-14_11h58.44.848,Flanker Compatibility Task,,2026.1.1,118.8225634,2026-04-14 11h58.45.136358 +0800
4,square,cong,-10,a,2,185,185,0,a,1,0.899868,None,,,,,0,185,185,146,269.5463204,,,,,,,,269.5414123,270.0416365,270.9463625,,,,,,,,,,,a,1,0.899868,None,,,,,,p001,2026-04-14_11h58.44.848,Flanker Compatibility Task,,2026.1.1,118.8225634,2026-04-14 11h58.45.136358 +0800
4,square,incong,-10,a,5,186,186,0,a,1,0.4778593,None,,,,,0,186,186,161,270.9548561,,,,,,,,270.947792,271.4427787,271.9222646,,,,,,,,,,,a,1,0.4778593,None,,,,,,p001,2026-04-14_11h58.44.848,Flanker Compatibility Task,,2026.1.1,118.8225634,2026-04-14 11h58.45.136358 +0800
4,square,cong,-10,a,3,187,187,0,a,1,1.8361083,None,,,,,0,187,187,147,271.9286672,,,,,,,,271.9242088,272.4178219,274.2567163,,,,,,,,,,,a,1,1.8361083,None,,,,,,p001,2026-04-14_11h58.44.848,Flanker Compatibility Task,,2026.1.1,118.8225634,2026-04-14 11h58.45.136358 +0800
3,square,incong,10,a,3,188,188,0,a,1,0.7203438,None,,,,,0,188,188,117,274.2627006,,,,,,,,274.2581979,274.7592117,275.480172,,,,,,,,,,,a,1,0.7203438,None,,,,,,p001,2026-04-14_11h58.44.848,Flanker Compatibility Task,,2026.1.1,118.8225634,2026-04-14 11h58.45.136358 +0800
1,diamond,incong,10,l,1,189,189,0,l,1,0.7521773,None,,,,,0,189,189,43,275.4874226,,,,,,,,275.4813403,275.9743549,276.7294425,,,,,,,,,,,l,1,0.7521773,None,,,,,,p001,2026-04-14_11h58.44.848,Flanker Compatibility Task,,2026.1.1,118.8225634,2026-04-14 11h58.45.136358 +0800
1,diamond,cong,-10,l,3,190,190,0,l,1,0.7124502,None,,,,,0,190,190,27,276.7377388,,,,,,,,276.7306193,277.224405,277.9384565,,,,,,,,,,,l,1,0.7124502,None,,,,,,p001,2026-04-14_11h58.44.848,Flanker Compatibility Task,,2026.1.1,118.8225634,2026-04-14 11h58.45.136358 +0800
2,diamond,incong,10,l,1,191,191,0,l,1,1.0446785,None,,,,,0,191,191,91,277.9448949,,,,,,,,277.9401102,278.4386165,279.4876448,,,,,,,,,,,l,1,1.0446785,None,,,,,,p001,2026-04-14_11h58.44.848,Flanker Compatibility Task,,2026.1.1,118.8225634,2026-04-14 11h58.45.136358 +0800
,,,,,,,,,,,,,,,,,,,,,,,,,,,,,,,,,,,,,,,,,,,,,,279.4878368,281.1613168,space,1.6589976,None,p001,2026-04-14_11h58.44.848,Flanker Compatibility Task,,2026.1.1,118.8225634,2026-04-14 11h58.45.136358 +0800
