difficulty,target_type,compatibility,dist_pos_x,ans,target_idx,thisN,thisTrialN,thisRepN,Anskey.keys,Anskey.corr,Anskey.rt,Anskey.duration,Prac_Loop.thisRepN,Prac_Loop.thisTrialN,Prac_Loop.thisN,Prac_Loop.thisIndex,Trials_Loop.thisRepN,Trials_Loop.thisTrialN,Trials_Loop.thisN,Trials_Loop.thisIndex,thisRow.t,notes,piloting,Intro.started,Intro.stopped,Intro_keyresp.keys,Intro_keyresp.rt,Intro_keyresp.duration,Trial_Routine.started,Anskey.started,Trial_Routine.stopped,Prac_Loop.Anskey.keys,Prac_Loop.Anskey.corr,Prac_Loop.Anskey.rt,Prac_Loop.Anskey.duration,Anskey.stopped,Ready.started,Ready.stopped,Ready_keyresp.keys,Ready_keyresp.rt,Ready_keyresp.duration,Trials_Loop.Anskey.keys,Trials_Loop.Anskey.corr,Trials_Loop.Anskey.rt,Trials_Loop.Anskey.duration,ThankYou.started,ThankYou.stopped,Thanks_keyresp.keys,Thanks_keyresp.rt,Thanks_keyresp.duration,participant,date,expName,expVersion,psychopyVersion,frameRate,expStart
,,,,,,,,,,,,,,,,,,,,,,,FALSE,0.0079549,1.6473504999885336,space,1.1465434999554418,None,,,,,,,,,,,,,,,,,,,,,,,p001,2026-04-14_11h58.44.848,Flanker Compatibility Task,,2026.1.1,118.82256342489471,2026-04-14 11h58.45.136358 +0800
2,square,cong,10,a,5,0,0,0,a,1,1.656010199978482,None,0,0,0,4,,,,,1.672879700025078,,,,,,,,1.6642471000086516,2.1411763000069186,3.7999579000170343,a,1,1.656010199978482,None,,,,,,,,,,,,,,,,p001,2026-04-14_11h58.44.848,Flanker Compatibility Task,,2026.1.1,118.82256342489471,2026-04-14 11h58.45.136358 +0800
1,diamond,incong,-10,l,5,1,1,0,l,1,1.348888199951034,None,0,1,1,3,,,,,3.8073119000182487,,,,,,,,3.801127800019458,4.2940656000282615,5.649209099996369,l,1,1.348888199951034,None,,,,,,,,,,,,,,,,p001,2026-04-14_11h58.44.848,Flanker Compatibility Task,,2026.1.1,118.82256342489471,2026-04-14 11h58.45.136358 +0800
3,diamond,cong,10,l,1,2,2,0,a,0,1.0457558000343852,None,0,2,2,10,,,,,5.6569035,,,,,,,,5.650412000017241,6.144940400030464,7.2006411,a,0,1.0457558000343852,None,,,,,,,,,,,,,,,,p001,2026-04-14_11h58.44.848,Flanker Compatibility Task,,2026.1.1,118.82256342489471,2026-04-14 11h58.45.136358 +0800
1,square,cong,-10,a,1,3,3,0,a,1,1.3487563999951817,None,0,3,3,0,,,,,7.207509800035041,,,,,,,,7.201880300010089,7.701943900028709,9.057076400029473,a,1,1.3487563999951817,None,,,,,,,,,,,,,,,,p001,2026-04-14_11h58.44.848,Flanker Compatibility Task,,2026.1.1,118.82256342489471,2026-04-14 11h58.45.136358 +0800
3,square,cong,-10,a,1,4,4,0,a,1,0.8203843999654055,None,0,4,4,8,,,,,9.065160400001332,,,,,,,,9.058491600037087,9.552259200019762,10.373417299997527,a,1,0.8203843999654055,None,,,,,,,,,,,,,,,,p001,2026-04-14_11h58.44.848,Flanker Compatibility Task,,2026.1.1,118.82256342489471,2026-04-14 11h58.45.136358 +0800
2,square,incong,-10,a,2,5,5,0,a,1,1.1852747999946587,None,0,5,5,5,,,,,10.380638000031468,,,,,,,,10.374325200042222,10.867251600022428,12.057089500012808,a,1,1.1852747999946587,None,,,,,,,,,,,,,,,,p001,2026-04-14_11h58.44.848,Flanker Compatibility Task,,2026.1.1,118.82256342489471,2026-04-14 11h58.45.136358 +0800
1,diamond,cong,10,l,0,6,6,0,l,1,0.7502691,None,0,6,6,2,,,,,12.06369680003263,,,,,,,,12.058035199996084,12.551595800032374,13.306247200001962,l,1,0.7502691,None,,,,,,,,,,,,,,,,p001,2026-04-14_11h58.44.848,Flanker Compatibility Task,,2026.1.1,118.82256342489471,2026-04-14 11h58.45.136358 +0800
2,diamond,cong,-10,l,3,7,7,0,a,0,1.049359500000719,None,0,7,7,6,,,,,13.31328250002116,,,,,,,,13.307440000004135,13.801598699996248,14.855743599997368,a,0,1.049359500000719,None,,,,,,,,,,,,,,,,p001,2026-04-14_11h58.44.848,Flanker Compatibility Task,,2026.1.1,118.82256342489471,2026-04-14 11h58.45.136358 +0800
1,square,incong,10,a,3,8,8,0,a,1,0.9036650999914855,None,0,8,8,1,,,,,14.862889100040775,,,,,,,,14.85698710003635,15.350407599995378,16.255085200013127,a,1,0.9036650999914855,None,,,,,,,,,,,,,,,,p001,2026-04-14_11h58.44.848,Flanker Compatibility Task,,2026.1.1,118.82256342489471,2026-04-14 11h58.45.136358 +0800
4,diamond,cong,-10,l,4,9,9,0,l,1,0.862497,None,0,9,9,14,,,,,16.26290999999037,,,,,,,,16.256530600017868,16.749249599990435,17.613463399989996,l,1,0.862497,None,,,,,,,,,,,,,,,,p001,2026-04-14_11h58.44.848,Flanker Compatibility Task,,2026.1.1,118.82256342489471,2026-04-14 11h58.45.136358 +0800
2,diamond,incong,10,l,0,10,10,0,l,1,0.7650987999513745,None,0,10,10,7,,,,,17.620752100017853,,,,,,,,17.614689900015946,18.10835550003685,18.879277800035197,l,1,0.7650987999513745,None,,,,,,,,,,,,,,,,p001,2026-04-14_11h58.44.848,Flanker Compatibility Task,,2026.1.1,118.82256342489471,2026-04-14 11h58.45.136358 +0800
4,square,cong,10,a,5,11,11,0,a,1,1.021344999957364,None,0,11,11,12,,,,,18.887339600012638,,,,,,,,18.8803828,19.375234400038607,20.403201100009028,a,1,1.021344999957364,None,,,,,,,,,,,,,,,,p001,2026-04-14_11h58.44.848,Flanker Compatibility Task,,2026.1.1,118.82256342489471,2026-04-14 11h58.45.136358 +0800
3,square,incong,10,a,5,12,12,0,l,0,0.7690642999950796,None,0,12,12,9,,,,,20.41071790002752,,,,,,,,20.404696300043724,20.898741999990307,21.67063910001889,l,0,0.7690642999950796,None,,,,,,,,,,,,,,,,p001,2026-04-14_11h58.44.848,Flanker Compatibility Task,,2026.1.1,118.82256342489471,2026-04-14 11h58.45.136358 +0800
3,diamond,incong,-10,l,4,13,13,0,a,0,0.8338362000067718,None,0,13,13,11,,,,,21.67712390003726,,,,,,,,21.672080599993933,22.173017400025856,23.012427200039383,a,0,0.8338362000067718,None,,,,,,,,,,,,,,,,p001,2026-04-14_11h58.44.848,Flanker Compatibility Task,,2026.1.1,118.82256342489471,2026-04-14 11h58.45.136358 +0800
4,diamond,incong,10,l,2,14,14,0,None,0,,,0,14,14,15,,,,,23.018284899997525,,,,,,,,23.013853200012818,23.514758700039238,27.002320200030226,None,0,,,27.009862400009297,,,,,,,,,,,,,,,p001,2026-04-14_11h58.44.848,Flanker Compatibility Task,,2026.1.1,118.82256342489471,2026-04-14 11h58.45.136358 +0800
4,square,incong,-10,a,1,15,15,0,a,1,1.2458038000040688,None,0,15,15,13,,,,,27.009862400009297,,,,,,,,27.003924200020265,27.513858499994967,28.769349700014573,a,1,1.2458038000040688,None,,,,,,,,,,,,,,,,p001,2026-04-14_11h58.44.848,Flanker Compatibility Task,,2026.1.1,118.82256342489471,2026-04-14 11h58.45.136358 +0800
,,,,,,,,,,,,,,,,,,,,,,,,,,,,,,,,,,,,,28.769539000000805,38.82416690001264,space,9.556239400000777,None,,,,,,,,,,p001,2026-04-14_11h58.44.848,Flanker Compatibility Task,,2026.1.1,118.82256342489471,2026-04-14 11h58.45.136358 +0800
2,diamond,cong,-10,l,2,0,0,0,l,1,0.8290693000308238,None,,,,,0,0,0,74,38.876855300040916,,,,,,,,38.87283450004179,39.32393469999079,40.15486499998951,,,,,,,,,,,l,1,0.8290693000308238,None,,,,,,p001,2026-04-14_11h58.44.848,Flanker Compatibility Task,,2026.1.1,118.82256342489471,2026-04-14 11h58.45.136358 +0800
3,diamond,cong,10,l,0,1,1,0,l,1,0.8305737000191584,None,,,,,0,1,1,126,40.161549900018144,,,,,,,,40.15630470000906,40.65709739999147,41.494971000007354,,,,,,,,,,,l,1,0.8305737000191584,None,,,,,,p001,2026-04-14_11h58.44.848,Flanker Compatibility Task,,2026.1.1,118.82256342489471,2026-04-14 11h58.45.136358 +0800
3,diamond,cong,-10,l,4,2,2,0,a,0,0.7723317000200041,None,,,,,0,2,2,124,41.50269120000303,,,,,,,,41.496303000021726,41.990571000031196,42.77010180003708,,,,,,,,,,,a,0,0.7723317000200041,None,,,,,,p001,2026-04-14_11h58.44.848,Flanker Compatibility Task,,2026.1.1,118.82256342489471,2026-04-14 11h58.45.136358 +0800
4,diamond,incong,10,l,5,3,3,0,a,0,0.6612946,None,,,,,0,3,3,191,42.77825660002418,,,,,,,,42.77156700001797,43.27401270001428,43.937089600018226,,,,,,,,,,,a,0,0.6612946,None,,,,,,p001,2026-04-14_11h58.44.848,Flanker Compatibility Task,,2026.1.1,118.82256342489471,2026-04-14 11h58.45.136358 +0800
3,square,cong,-10,a,4,4,4,0,l,0,0.6874064999865368,None,,,,,0,4,4,100,43.94395650003571,,,,,,,,43.9385481,44.439540899998974,45.12801730004139,,,,,,,,,,,l,0,0.6874064999865368,None,,,,,,p001,2026-04-14_11h58.44.848,Flanker Compatibility Task,,2026.1.1,118.82256342489471,2026-04-14 11h58.45.136358 +0800
3,square,incong,-10,a,3,5,5,0,a,1,0.6651322,None,,,,,0,5,5,111,45.135854099993594,,,,,,,,45.1295153,45.62234810000518,46.294023800001014,,,,,,,,,,,a,1,0.6651322,None,,,,,,p001,2026-04-14_11h58.44.848,Flanker Compatibility Task,,2026.1.1,118.82256342489471,2026-04-14 11h58.45.136358 +0800
4,diamond,cong,10,l,1,6,6,0,a,0,0.7534838999854401,None,,,,,0,6,6,175,46.302395800012164,,,,,,,,46.29543590004323,46.789855,47.54458700004034,,,,,,,,,,,a,0,0.7534838999854401,None,,,,,,p001,2026-04-14_11h58.44.848,Flanker Compatibility Task,,2026.1.1,118.82256342489471,2026-04-14 11h58.45.136358 +0800
4,square,cong,-10,a,0,7,7,0,a,1,0.6568138000438921,None,,,,,0,7,7,144,47.55110450001666,,,,,,,,47.545773999998346,48.04746910004178,48.71033690002514,,,,,,,,,,,a,1,0.6568138000438921,None,,,,,,p001,2026-04-14_11h58.44.848,Flanker Compatibility Task,,2026.1.1,118.82256342489471,2026-04-14 11h58.45.136358 +0800
2,square,incong,10,a,3,8,8,0,l,0,0.6913878000341356,None,,,,,0,8,8,69,48.718115800002124,,,,,,,,48.71182200004114,49.204075500019826,49.901510900002904,,,,,,,,,,,l,0,0.6913878000341356,None,,,,,,p001,2026-04-14_11h58.44.848,Flanker Compatibility Task,,2026.1.1,118.82256342489471,2026-04-14 11h58.45.136358 +0800
1,square,incong,-10,a,5,9,9,0,a,1,0.4581471999990754,None,,,,,0,9,9,17,49.9096771,,,,,,,,49.902688800008036,50.396596600010525,50.859524800034706,,,,,,,,,,,a,1,0.4581471999990754,None,,,,,,p001,2026-04-14_11h58.44.848,Flanker Compatibility Task,,2026.1.1,118.82256342489471,2026-04-14 11h58.45.136358 +0800
3,square,cong,-10,a,2,10,10,0,a,1,0.7385226999758743,None,,,,,0,10,10,98,50.86764780001249,,,,,,,,50.86087560001761,51.354989300016314,52.10089490003884,,,,,,,,,,,a,1,0.7385226999758743,None,,,,,,p001,2026-04-14_11h58.44.848,Flanker Compatibility Task,,2026.1.1,118.82256342489471,2026-04-14 11h58.45.136358 +0800
4,diamond,incong,10,l,0,11,11,0,a,0,0.8070327,None,,,,,0,11,11,186,52.10843090002891,,,,,,,,52.102343200007454,52.592903800017666,53.402000800007954,,,,,,,,,,,a,0,0.8070327,None,,,,,,p001,2026-04-14_11h58.44.848,Flanker Compatibility Task,,2026.1.1,118.82256342489471,2026-04-14 11h58.45.136358 +0800
2,square,incong,-10,a,5,12,12,0,a,1,0.5831556000048295,None,,,,,0,12,12,65,53.40855570003623,,,,,,,,53.4030004,53.904150900023524,54.493129900016356,,,,,,,,,,,a,1,0.5831556000048295,None,,,,,,p001,2026-04-14_11h58.44.848,Flanker Compatibility Task,,2026.1.1,118.82256342489471,2026-04-14 11h58.45.136358 +0800
1,square,incong,-10,a,1,13,13,0,a,1,0.5137171000242233,None,,,,,0,13,13,13,54.50026410003193,,,,,,,,54.494278600031976,54.9875739,55.50213159999112,,,,,,,,,,,a,1,0.5137171000242233,None,,,,,,p001,2026-04-14_11h58.44.848,Flanker Compatibility Task,,2026.1.1,118.82256342489471,2026-04-14 11h58.45.136358 +0800
4,diamond,incong,-10,l,4,14,14,0,l,1,0.6077723999624141,None,,,,,0,14,14,184,55.508339199994225,,,,,,,,55.50366370001575,56.00454910000553,56.618010900041554,,,,,,,,,,,l,1,0.6077723999624141,None,,,,,,p001,2026-04-14_11h58.44.848,Flanker Compatibility Task,,2026.1.1,118.82256342489471,2026-04-14 11h58.45.136358 +0800
2,square,incong,10,a,1,15,15,0,a,1,0.5455669999937527,None,,,,,0,15,15,67,56.623953000002075,,,,,,,,56.61954600003082,57.11959970003227,57.66675969999051,,,,,,,,,,,a,1,0.5455669999937527,None,,,,,,p001,2026-04-14_11h58.44.848,Flanker Compatibility Task,,2026.1.1,118.82256342489471,2026-04-14 11h58.45.136358 +0800
3,square,cong,-10,a,5,16,16,0,a,1,0.5142436000169255,None,,,,,0,16,16,101,57.67432799999369,,,,,,,,57.668157100037206,58.17721430002712,58.69869260000996,,,,,,,,,,,a,1,0.5142436000169255,None,,,,,,p001,2026-04-14_11h58.44.848,Flanker Compatibility Task,,2026.1.1,118.82256342489471,2026-04-14 11h58.45.136358 +0800
1,diamond,incong,-10,l,1,17,17,0,l,1,0.5603567999787629,None,,,,,0,17,17,37,58.70672499999637,,,,,,,,58.69994570000563,59.19405650004046,59.75822290003998,,,,,,,,,,,l,1,0.5603567999787629,None,,,,,,p001,2026-04-14_11h58.44.848,Flanker Compatibility Task,,2026.1.1,118.82256342489471,2026-04-14 11h58.45.136358 +0800
4,square,incong,10,a,1,18,18,0,a,1,0.57782,None,,,,,0,18,18,163,59.764813799993135,,,,,,,,59.75995060004061,60.25380450004013,60.832577700028196,,,,,,,,,,,a,1,0.57782,None,,,,,,p001,2026-04-14_11h58.44.848,Flanker Compatibility Task,,2026.1.1,118.82256342489471,2026-04-14 11h58.45.136358 +0800
3,square,cong,10,a,4,19,19,0,l,0,0.5945470000151545,None,,,,,0,19,19,106,60.84011610003654,,,,,,,,60.83396850002464,61.3272575,61.93375810002908,,,,,,,,,,,l,0,0.5945470000151545,None,,,,,,p001,2026-04-14_11h58.44.848,Flanker Compatibility Task,,2026.1.1,118.82256342489471,2026-04-14 11h58.45.136358 +0800
3,square,incong,10,a,5,20,20,0,a,1,0.6557503999792971,None,,,,,0,20,20,119,61.94587049999973,,,,,,,,61.93686170002911,62.436880699999165,63.09874139999738,,,,,,,,,,,a,1,0.6557503999792971,None,,,,,,p001,2026-04-14_11h58.44.848,Flanker Compatibility Task,,2026.1.1,118.82256342489471,2026-04-14 11h58.45.136358 +0800
3,diamond,cong,-10,l,1,21,21,0,l,1,0.7981457,None,,,,,0,21,21,121,63.10734380001668,,,,,,,,63.10009220003849,63.594084200041834,64.39818840002408,,,,,,,,,,,l,1,0.7981457,None,,,,,,p001,2026-04-14_11h58.44.848,Flanker Compatibility Task,,2026.1.1,118.82256342489471,2026-04-14 11h58.45.136358 +0800
4,square,cong,-10,a,1,22,22,0,a,1,0.6369369000312872,None,,,,,0,22,22,145,64.40658100001747,,,,,,,,64.39964509999845,64.89320019999286,65.5323783,,,,,,,,,,,a,1,0.6369369000312872,None,,,,,,p001,2026-04-14_11h58.44.848,Flanker Compatibility Task,,2026.1.1,118.82256342489471,2026-04-14 11h58.45.136358 +0800
4,square,incong,-10,a,3,23,23,0,a,1,0.6912918000016361,None,,,,,0,23,23,159,65.53915860003326,,,,,,,,65.53426119999494,66.03429680003319,66.73200930003077,,,,,,,,,,,a,1,0.6912918000016361,None,,,,,,p001,2026-04-14_11h58.44.848,Flanker Compatibility Task,,2026.1.1,118.82256342489471,2026-04-14 11h58.45.136358 +0800
1,square,cong,-10,a,3,24,24,0,a,1,0.4563248999766074,None,,,,,0,24,24,3,66.73931159998756,,,,,,,,66.73352539999178,67.23373450001236,67.69733100000303,,,,,,,,,,,a,1,0.4563248999766074,None,,,,,,p001,2026-04-14_11h58.44.848,Flanker Compatibility Task,,2026.1.1,118.82256342489471,2026-04-14 11h58.45.136358 +0800
4,diamond,cong,10,l,5,25,25,0,l,1,0.6222943000029773,None,,,,,0,25,25,179,67.70560550002847,,,,,,,,67.69882709998637,68.19325370003935,68.82306180003798,,,,,,,,,,,l,1,0.6222943000029773,None,,,,,,p001,2026-04-14_11h58.44.848,Flanker Compatibility Task,,2026.1.1,118.82256342489471,2026-04-14 11h58.45.136358 +0800
3,square,incong,-10,a,2,26,26,0,a,1,0.7510494000161998,None,,,,,0,26,26,110,68.82968550000805,,,,,,,,68.82453020004323,69.32576650002738,70.08135360002052,,,,,,,,,,,a,1,0.7510494000161998,None,,,,,,p001,2026-04-14_11h58.44.848,Flanker Compatibility Task,,2026.1.1,118.82256342489471,2026-04-14 11h58.45.136358 +0800
2,diamond,cong,10,l,2,27,27,0,a,0,0.49237320001702756,None,,,,,0,27,27,80,70.08779920003144,,,,,,,,70.08271280000918,70.5826209,71.07908480003243,,,,,,,,,,,a,0,0.49237320001702756,None,,,,,,p001,2026-04-14_11h58.44.848,Flanker Compatibility Task,,2026.1.1,118.82256342489471,2026-04-14 11h58.45.136358 +0800
2,square,incong,10,a,0,28,28,0,a,1,0.49439690000144765,None,,,,,0,28,28,66,71.08726830000523,,,,,,,,71.08033940003952,71.58671569998842,72.08749569999054,,,,,,,,,,,a,1,0.49439690000144765,None,,,,,,p001,2026-04-14_11h58.44.848,Flanker Compatibility Task,,2026.1.1,118.82256342489471,2026-04-14 11h58.45.136358 +0800
3,square,incong,-10,a,4,29,29,0,l,0,0.5922984,None,,,,,0,29,29,112,72.09590090002166,,,,,,,,72.08883900003275,72.58321950002573,73.17962400004035,,,,,,,,,,,l,0,0.5922984,None,,,,,,p001,2026-04-14_11h58.44.848,Flanker Compatibility Task,,2026.1.1,118.82256342489471,2026-04-14 11h58.45.136358 +0800
2,square,cong,-10,a,1,30,30,0,a,1,0.7550124000408687,None,,,,,0,30,30,49,73.18709230003878,,,,,,,,73.18097799998941,73.68116700003156,74.43850330001442,,,,,,,,,,,a,1,0.7550124000408687,None,,,,,,p001,2026-04-14_11h58.44.848,Flanker Compatibility Task,,2026.1.1,118.82256342489471,2026-04-14 11h58.45.136358 +0800
1,diamond,cong,10,l,2,31,31,0,l,1,0.6739246000070125,None,,,,,0,31,31,32,74.44542210001964,,,,,,,,74.43979510001373,74.9391794,75.61390820000088,,,,,,,,,,,l,1,0.6739246000070125,None,,,,,,p001,2026-04-14_11h58.44.848,Flanker Compatibility Task,,2026.1.1,118.82256342489471,2026-04-14 11h58.45.136358 +0800
4,square,incong,-10,a,4,32,32,0,a,1,0.5943766999989748,None,,,,,0,32,32,160,75.62042270001257,,,,,,,,75.61564490001183,76.115683,76.71269250003388,,,,,,,,,,,a,1,0.5943766999989748,None,,,,,,p001,2026-04-14_11h58.44.848,Flanker Compatibility Task,,2026.1.1,118.82256342489471,2026-04-14 11h58.45.136358 +0800
2,diamond,cong,-10,l,4,33,33,0,l,1,0.5734737000311725,None,,,,,0,33,33,76,76.71947140002158,,,,,,,,76.71413810004015,77.21372639999026,77.79493289999664,,,,,,,,,,,l,1,0.5734737000311725,None,,,,,,p001,2026-04-14_11h58.44.848,Flanker Compatibility Task,,2026.1.1,118.82256342489471,2026-04-14 11h58.45.136358 +0800
4,diamond,cong,-10,l,3,34,34,0,a,0,0.4953908000024967,None,,,,,0,34,34,171,77.80288939998718,,,,,,,,77.79634649999207,78.29034250002587,78.79417030001059,,,,,,,,,,,a,0,0.4953908000024967,None,,,,,,p001,2026-04-14_11h58.44.848,Flanker Compatibility Task,,2026.1.1,118.82256342489471,2026-04-14 11h58.45.136358 +0800
4,diamond,incong,-10,l,0,35,35,0,a,0,0.7849245,None,,,,,0,35,35,180,78.80270629998995,,,,,,,,78.7955529,79.29061520000687,80.07805640000151,,,,,,,,,,,a,0,0.7849245,None,,,,,,p001,2026-04-14_11h58.44.848,Flanker Compatibility Task,,2026.1.1,118.82256342489471,2026-04-14 11h58.45.136358 +0800
2,diamond,incong,10,l,3,36,36,0,l,1,0.5757451000390574,None,,,,,0,36,36,93,80.0852731,,,,,,,,80.07905310002388,80.57313620002242,81.16234909999184,,,,,,,,,,,l,1,0.5757451000390574,None,,,,,,p001,2026-04-14_11h58.44.848,Flanker Compatibility Task,,2026.1.1,118.82256342489471,2026-04-14 11h58.45.136358 +0800
1,square,cong,10,a,4,37,37,0,a,1,0.5228742000181228,None,,,,,0,37,37,10,81.1718714,,,,,,,,81.16572220000671,81.66362589999335,82.1935506,,,,,,,,,,,a,1,0.5228742000181228,None,,,,,,p001,2026-04-14_11h58.44.848,Flanker Compatibility Task,,2026.1.1,118.82256342489471,2026-04-14 11h58.45.136358 +0800
4,diamond,cong,-10,l,0,38,38,0,l,1,0.5437252999981865,None,,,,,0,38,38,168,82.20184180000797,,,,,,,,82.19499180000275,82.69525380001869,83.24368750001304,,,,,,,,,,,l,1,0.5437252999981865,None,,,,,,p001,2026-04-14_11h58.44.848,Flanker Compatibility Task,,2026.1.1,118.82256342489471,2026-04-14 11h58.45.136358 +0800
1,square,cong,10,a,5,39,39,0,a,1,0.5257959000300616,None,,,,,0,39,39,11,83.25110789999599,,,,,,,,83.24500070000067,83.7465988,84.27593400003389,,,,,,,,,,,a,1,0.5257959000300616,None,,,,,,p001,2026-04-14_11h58.44.848,Flanker Compatibility Task,,2026.1.1,118.82256342489471,2026-04-14 11h58.45.136358 +0800
3,diamond,incong,-10,l,1,40,40,0,l,1,0.6645403,None,,,,,0,40,40,133,84.2837053,,,,,,,,84.2772695,84.76885719998972,85.43418979999842,,,,,,,,,,,l,1,0.6645403,None,,,,,,p001,2026-04-14_11h58.44.848,Flanker Compatibility Task,,2026.1.1,118.82256342489471,2026-04-14 11h58.45.136358 +0800
3,diamond,incong,-10,l,2,41,41,0,a,0,0.6466112000052817,None,,,,,0,41,41,134,85.44159260002198,,,,,,,,85.43519440002274,85.92959060001886,86.57705300004454,,,,,,,,,,,a,0,0.6466112000052817,None,,,,,,p001,2026-04-14_11h58.44.848,Flanker Compatibility Task,,2026.1.1,118.82256342489471,2026-04-14 11h58.45.136358 +0800
4,diamond,incong,-10,l,3,42,42,0,a,0,0.6076259,None,,,,,0,42,42,183,86.58320880000247,,,,,,,,86.57857860001968,87.07999450003263,87.69309690000955,,,,,,,,,,,a,0,0.6076259,None,,,,,,p001,2026-04-14_11h58.44.848,Flanker Compatibility Task,,2026.1.1,118.82256342489471,2026-04-14 11h58.45.136358 +0800
1,square,cong,10,a,0,43,43,0,a,1,0.5424209999619052,None,,,,,0,43,43,6,87.69962810003199,,,,,,,,87.69435280002654,88.19328990002396,88.7416015,,,,,,,,,,,a,1,0.5424209999619052,None,,,,,,p001,2026-04-14_11h58.44.848,Flanker Compatibility Task,,2026.1.1,118.82256342489471,2026-04-14 11h58.45.136358 +0800
3,diamond,cong,10,l,5,44,44,0,l,1,0.6948666999815032,None,,,,,0,44,44,131,88.7491713,,,,,,,,88.74255810002796,89.23696000000928,89.93440140003804,,,,,,,,,,,l,1,0.6948666999815032,None,,,,,,p001,2026-04-14_11h58.44.848,Flanker Compatibility Task,,2026.1.1,118.82256342489471,2026-04-14 11h58.45.136358 +0800
3,diamond,incong,-10,l,0,45,45,0,l,1,0.6359469,None,,,,,0,45,45,132,89.94090730004245,,,,,,,,89.93585050001275,90.43576020002365,91.07541390002007,,,,,,,,,,,l,1,0.6359469,None,,,,,,p001,2026-04-14_11h58.44.848,Flanker Compatibility Task,,2026.1.1,118.82256342489471,2026-04-14 11h58.45.136358 +0800
1,square,incong,10,a,1,46,46,0,a,1,0.6825636000139639,None,,,,,0,46,46,19,91.08216970000649,,,,,,,,91.0767214,91.5761869,92.2596448,,,,,,,,,,,a,1,0.6825636000139639,None,,,,,,p001,2026-04-14_11h58.44.848,Flanker Compatibility Task,,2026.1.1,118.82256342489471,2026-04-14 11h58.45.136358 +0800
1,square,incong,10,a,3,47,47,0,a,1,0.43902560003334656,None,,,,,0,47,47,21,92.26573440001812,,,,,,,,92.2609369,92.75835780001944,93.19990509998752,,,,,,,,,,,a,1,0.43902560003334656,None,,,,,,p001,2026-04-14_11h58.44.848,Flanker Compatibility Task,,2026.1.1,118.82256342489471,2026-04-14 11h58.45.136358 +0800
3,diamond,cong,10,l,4,48,48,0,a,0,0.5222345999791287,None,,,,,0,48,48,130,93.20659760001581,,,,,,,,93.20137210004032,93.69463189999806,94.22406490001595,,,,,,,,,,,a,0,0.5222345999791287,None,,,,,,p001,2026-04-14_11h58.44.848,Flanker Compatibility Task,,2026.1.1,118.82256342489471,2026-04-14 11h58.45.136358 +0800
4,square,cong,10,a,3,49,49,0,a,1,0.5778205000096932,None,,,,,0,49,49,153,94.23166420002235,,,,,,,,94.22583950002445,94.71956070000306,95.2989932,,,,,,,,,,,a,1,0.5778205000096932,None,,,,,,p001,2026-04-14_11h58.44.848,Flanker Compatibility Task,,2026.1.1,118.82256342489471,2026-04-14 11h58.45.136358 +0800
4,diamond,cong,10,l,3,50,50,0,l,1,0.4673561,None,,,,,0,50,50,177,95.30617779999739,,,,,,,,95.3001277,95.79375589999836,96.26494130003266,,,,,,,,,,,l,1,0.4673561,None,,,,,,p001,2026-04-14_11h58.44.848,Flanker Compatibility Task,,2026.1.1,118.82256342489471,2026-04-14 11h58.45.136358 +0800
3,square,incong,10,a,0,51,51,0,a,1,0.5449453000328504,None,,,,,0,51,51,114,96.27225350000663,,,,,,,,96.26627720001852,96.77047310001217,97.31628090003505,,,,,,,,,,,a,1,0.5449453000328504,None,,,,,,p001,2026-04-14_11h58.44.848,Flanker Compatibility Task,,2026.1.1,118.82256342489471,2026-04-14 11h58.45.136358 +0800
2,diamond,incong,-10,l,5,52,52,0,l,1,0.49642110004788265,None,,,,,0,52,52,89,97.32250990002649,,,,,,,,97.31760190002387,97.81885060004424,98.32351650000783,,,,,,,,,,,l,1,0.49642110004788265,None,,,,,,p001,2026-04-14_11h58.44.848,Flanker Compatibility Task,,2026.1.1,118.82256342489471,2026-04-14 11h58.45.136358 +0800
3,square,cong,-10,a,0,53,53,0,a,1,0.5161347999819554,None,,,,,0,53,53,96,98.33041640004376,,,,,,,,98.3252084,98.82572359999176,99.34769070002949,,,,,,,,,,,a,1,0.5161347999819554,None,,,,,,p001,2026-04-14_11h58.44.848,Flanker Compatibility Task,,2026.1.1,118.82256342489471,2026-04-14 11h58.45.136358 +0800
1,square,incong,10,a,2,54,54,0,a,1,0.4641012999927625,None,,,,,0,54,54,20,99.35506860003807,,,,,,,,99.34881699999096,99.8425076,100.31508810003288,,,,,,,,,,,a,1,0.4641012999927625,None,,,,,,p001,2026-04-14_11h58.44.848,Flanker Compatibility Task,,2026.1.1,118.82256342489471,2026-04-14 11h58.45.136358 +0800
1,diamond,incong,10,l,5,55,55,0,l,1,0.6022959,None,,,,,0,55,55,47,100.32195660000434,,,,,,,,100.31635390000883,100.81590129999677,101.42291280004429,,,,,,,,,,,l,1,0.6022959,None,,,,,,p001,2026-04-14_11h58.44.848,Flanker Compatibility Task,,2026.1.1,118.82256342489471,2026-04-14 11h58.45.136358 +0800
1,square,incong,-10,a,3,56,56,0,a,1,0.4729458999936469,None,,,,,0,56,56,15,101.42955070000608,,,,,,,,101.42423870001221,101.91735860001063,102.39645030000247,,,,,,,,,,,a,1,0.4729458999936469,None,,,,,,p001,2026-04-14_11h58.44.848,Flanker Compatibility Task,,2026.1.1,118.82256342489471,2026-04-14 11h58.45.136358 +0800
1,diamond,cong,10,l,0,57,57,0,l,1,0.5292118000215851,None,,,,,0,57,57,30,102.40419189998647,,,,,,,,102.3975899,102.89141989999916,103.42136050004046,,,,,,,,,,,l,1,0.5292118000215851,None,,,,,,p001,2026-04-14_11h58.44.848,Flanker Compatibility Task,,2026.1.1,118.82256342489471,2026-04-14 11h58.45.136358 +0800
3,diamond,cong,10,l,2,58,58,0,l,1,0.5270894999848679,None,,,,,0,58,58,128,103.42893490003189,,,,,,,,103.42272540001431,103.91760620003333,104.44712349999463,,,,,,,,,,,l,1,0.5270894999848679,None,,,,,,p001,2026-04-14_11h58.44.848,Flanker Compatibility Task,,2026.1.1,118.82256342489471,2026-04-14 11h58.45.136358 +0800
2,square,incong,10,a,2,59,59,0,a,1,0.5944050999823958,None,,,,,0,59,59,68,104.4536267000367,,,,,,,,104.4484536999953,104.95025500003248,105.5465528999921,,,,,,,,,,,a,1,0.5944050999823958,None,,,,,,p001,2026-04-14_11h58.44.848,Flanker Compatibility Task,,2026.1.1,118.82256342489471,2026-04-14 11h58.45.136358 +0800
4,square,cong,-10,a,5,60,60,0,a,1,0.4909957000054419,None,,,,,0,60,60,149,105.55338940001093,,,,,,,,105.54811910004355,106.04171220003627,106.53818580001825,,,,,,,,,,,a,1,0.4909957000054419,None,,,,,,p001,2026-04-14_11h58.44.848,Flanker Compatibility Task,,2026.1.1,118.82256342489471,2026-04-14 11h58.45.136358 +0800
1,diamond,cong,10,l,5,61,61,0,l,1,0.5383819999988191,None,,,,,0,61,61,35,106.54562809999334,,,,,,,,106.53935770003591,107.03269349999027,107.57195990002947,,,,,,,,,,,l,1,0.5383819999988191,None,,,,,,p001,2026-04-14_11h58.44.848,Flanker Compatibility Task,,2026.1.1,118.82256342489471,2026-04-14 11h58.45.136358 +0800
2,square,cong,-10,a,5,62,62,0,a,1,0.4355461999657564,None,,,,,0,62,62,53,107.57803810003679,,,,,,,,107.57330280001042,108.07398600003216,108.51160229998641,,,,,,,,,,,a,1,0.4355461999657564,None,,,,,,p001,2026-04-14_11h58.44.848,Flanker Compatibility Task,,2026.1.1,118.82256342489471,2026-04-14 11h58.45.136358 +0800
2,diamond,cong,10,l,0,63,63,0,l,1,0.5165368000161834,None,,,,,0,63,63,78,108.51920909999171,,,,,,,,108.51279280002927,109.00790180003969,109.52965969999786,,,,,,,,,,,l,1,0.5165368000161834,None,,,,,,p001,2026-04-14_11h58.44.848,Flanker Compatibility Task,,2026.1.1,118.82256342489471,2026-04-14 11h58.45.136358 +0800
1,square,cong,-10,a,5,64,64,0,a,1,0.6884878000128083,None,,,,,0,64,64,5,109.53604780003661,,,,,,,,109.53092490002746,110.03214690001914,110.7278920999961,,,,,,,,,,,a,1,0.6884878000128083,None,,,,,,p001,2026-04-14_11h58.44.848,Flanker Compatibility Task,,2026.1.1,118.82256342489471,2026-04-14 11h58.45.136358 +0800
3,diamond,incong,10,l,0,65,65,0,l,1,0.5363917999784462,None,,,,,0,65,65,138,110.73586710001109,,,,,,,,110.72976050002035,111.22298780002166,111.76173840003321,,,,,,,,,,,l,1,0.5363917999784462,None,,,,,,p001,2026-04-14_11h58.44.848,Flanker Compatibility Task,,2026.1.1,118.82256342489471,2026-04-14 11h58.45.136358 +0800
1,square,incong,-10,a,2,66,66,0,a,1,0.9038466000347398,None,,,,,0,66,66,14,111.76838399999542,,,,,,,,111.76271450001514,112.26233900000807,113.16967860003933,,,,,,,,,,,a,1,0.9038466000347398,None,,,,,,p001,2026-04-14_11h58.44.848,Flanker Compatibility Task,,2026.1.1,118.82256342489471,2026-04-14 11h58.45.136358 +0800
1,diamond,cong,-10,l,5,67,67,0,l,1,0.6207496999995783,None,,,,,0,67,67,29,113.17642480001086,,,,,,,,113.17097100004321,113.66425020003226,114.28639210003894,,,,,,,,,,,l,1,0.6207496999995783,None,,,,,,p001,2026-04-14_11h58.44.848,Flanker Compatibility Task,,2026.1.1,118.82256342489471,2026-04-14 11h58.45.136358 +0800
4,square,incong,10,a,2,68,68,0,a,1,0.7893679999979213,None,,,,,0,68,68,164,114.29285420000087,,,,,,,,114.28843770001549,114.78083250002237,115.57690430001821,,,,,,,,,,,a,1,0.7893679999979213,None,,,,,,p001,2026-04-14_11h58.44.848,Flanker Compatibility Task,,2026.1.1,118.82256342489471,2026-04-14 11h58.45.136358 +0800
4,diamond,incong,-10,l,2,69,69,0,a,0,0.8000490999547765,None,,,,,0,69,69,182,115.58428660000209,,,,,,,,115.57849390001502,116.07291119999718,116.87734300002921,,,,,,,,,,,a,0,0.8000490999547765,None,,,,,,p001,2026-04-14_11h58.44.848,Flanker Compatibility Task,,2026.1.1,118.82256342489471,2026-04-14 11h58.45.136358 +0800
4,square,cong,10,a,1,70,70,0,a,1,0.7947207000106573,None,,,,,0,70,70,151,116.88398320000852,,,,,,,,116.87887680000858,117.38055890001124,118.17637990001822,,,,,,,,,,,a,1,0.7947207000106573,None,,,,,,p001,2026-04-14_11h58.44.848,Flanker Compatibility Task,,2026.1.1,118.82256342489471,2026-04-14 11h58.45.136358 +0800
3,square,incong,-10,a,0,71,71,0,a,1,1.0753506000037305,None,,,,,0,71,71,108,118.1836103000096,,,,,,,,118.17772770003648,118.67186120001134,119.75196920003509,,,,,,,,,,,a,1,1.0753506000037305,None,,,,,,p001,2026-04-14_11h58.44.848,Flanker Compatibility Task,,2026.1.1,118.82256342489471,2026-04-14 11h58.45.136358 +0800
2,square,incong,-10,a,0,72,72,0,a,1,0.6772602999699302,None,,,,,0,72,72,60,119.75826660002349,,,,,,,,119.75334649998695,120.25409760000184,120.93374060001224,,,,,,,,,,,a,1,0.6772602999699302,None,,,,,,p001,2026-04-14_11h58.44.848,Flanker Compatibility Task,,2026.1.1,118.82256342489471,2026-04-14 11h58.45.136358 +0800
2,diamond,incong,10,l,0,73,73,0,l,1,0.5870350999757648,None,,,,,0,73,73,90,120.94109330000356,,,,,,,,120.93508030002704,121.42889050004305,122.01819460000843,,,,,,,,,,,l,1,0.5870350999757648,None,,,,,,p001,2026-04-14_11h58.44.848,Flanker Compatibility Task,,2026.1.1,118.82256342489471,2026-04-14 11h58.45.136358 +0800
4,diamond,incong,10,l,2,74,74,0,l,1,1.0029629000346176,None,,,,,0,74,74,188,122.02440480003133,,,,,,,,122.01969610003289,122.52039990003686,123.52600120002171,,,,,,,,,,,l,1,1.0029629000346176,None,,,,,,p001,2026-04-14_11h58.44.848,Flanker Compatibility Task,,2026.1.1,118.82256342489471,2026-04-14 11h58.45.136358 +0800
3,square,cong,-10,a,1,75,75,0,a,1,1.0293340999633074,None,,,,,0,75,75,97,123.53239619999658,,,,,,,,123.52750200004084,124.02622240001801,125.0587683999911,,,,,,,,,,,a,1,1.0293340999633074,None,,,,,,p001,2026-04-14_11h58.44.848,Flanker Compatibility Task,,2026.1.1,118.82256342489471,2026-04-14 11h58.45.136358 +0800
2,diamond,cong,10,l,5,76,76,0,l,1,0.6929177000420168,None,,,,,0,76,76,83,125.06537440000102,,,,,,,,125.06019510002807,125.55344099999638,126.24891850003041,,,,,,,,,,,l,1,0.6929177000420168,None,,,,,,p001,2026-04-14_11h58.44.848,Flanker Compatibility Task,,2026.1.1,118.82256342489471,2026-04-14 11h58.45.136358 +0800
3,square,incong,10,a,2,77,77,0,a,1,0.6839583999826573,None,,,,,0,77,77,116,126.25661159999436,,,,,,,,126.25022680003894,126.74400000000605,127.4326088000089,,,,,,,,,,,a,1,0.6839583999826573,None,,,,,,p001,2026-04-14_11h58.44.848,Flanker Compatibility Task,,2026.1.1,118.82256342489471,2026-04-14 11h58.45.136358 +0800
2,square,cong,10,a,0,78,78,0,a,1,0.5041090999729931,None,,,,,0,78,78,54,127.4396565000061,,,,,,,,127.43387180002173,127.92698789999122,128.43235670001013,,,,,,,,,,,a,1,0.5041090999729931,None,,,,,,p001,2026-04-14_11h58.44.848,Flanker Compatibility Task,,2026.1.1,118.82256342489471,2026-04-14 11h58.45.136358 +0800
4,diamond,cong,-10,l,2,79,79,0,l,1,0.7335869999951683,None,,,,,0,79,79,170,128.43933419999667,,,,,,,,128.43386330001522,128.92470760003198,129.66484690003563,,,,,,,,,,,l,1,0.7335869999951683,None,,,,,,p001,2026-04-14_11h58.44.848,Flanker Compatibility Task,,2026.1.1,118.82256342489471,2026-04-14 11h58.45.136358 +0800
2,square,cong,10,a,3,80,80,0,a,1,0.6142563000321388,None,,,,,0,80,80,57,129.67360760003794,,,,,,,,129.66606730001513,130.15987959998893,130.78137149999384,,,,,,,,,,,a,1,0.6142563000321388,None,,,,,,p001,2026-04-14_11h58.44.848,Flanker Compatibility Task,,2026.1.1,118.82256342489471,2026-04-14 11h58.45.136358 +0800
3,diamond,incong,-10,l,3,81,81,0,l,1,0.49620059999870136,None,,,,,0,81,81,135,130.78908389998833,,,,,,,,130.78270010004053,131.27690799999982,131.7810226000147,,,,,,,,,,,l,1,0.49620059999870136,None,,,,,,p001,2026-04-14_11h58.44.848,Flanker Compatibility Task,,2026.1.1,118.82256342489471,2026-04-14 11h58.45.136358 +0800
2,diamond,incong,-10,l,1,82,82,0,a,0,0.6187285000341944,None,,,,,0,82,82,85,131.78912130004028,,,,,,,,131.78223569999682,132.27566240000306,132.89883419999387,,,,,,,,,,,a,0,0.6187285000341944,None,,,,,,p001,2026-04-14_11h58.44.848,Flanker Compatibility Task,,2026.1.1,118.82256342489471,2026-04-14 11h58.45.136358 +0800
4,square,incong,10,a,0,83,83,0,a,1,0.8817339999950491,None,,,,,0,83,83,162,132.90504030004377,,,,,,,,132.90037340001436,133.40203699999256,134.28874500002712,,,,,,,,,,,a,1,0.8817339999950491,None,,,,,,p001,2026-04-14_11h58.44.848,Flanker Compatibility Task,,2026.1.1,118.82256342489471,2026-04-14 11h58.45.136358 +0800
2,square,cong,-10,a,0,84,84,0,a,1,0.47240959998453036,None,,,,,0,84,84,48,134.29730040003778,,,,,,,,134.28998190001585,134.78452560002916,135.26330739998957,,,,,,,,,,,a,1,0.47240959998453036,None,,,,,,p001,2026-04-14_11h58.44.848,Flanker Compatibility Task,,2026.1.1,118.82256342489471,2026-04-14 11h58.45.136358 +0800
1,square,cong,-10,a,2,85,85,0,a,1,0.5019457000307739,None,,,,,0,85,85,2,135.2709188000299,,,,,,,,135.26506810000865,135.75842820003163,136.26313850004226,,,,,,,,,,,a,1,0.5019457000307739,None,,,,,,p001,2026-04-14_11h58.44.848,Flanker Compatibility Task,,2026.1.1,118.82256342489471,2026-04-14 11h58.45.136358 +0800
4,square,cong,10,a,2,86,86,0,a,1,0.7253633000073023,None,,,,,0,86,86,152,136.27071320003597,,,,,,,,136.26418890000787,136.7587719000294,137.48826710000867,,,,,,,,,,,a,1,0.7253633000073023,None,,,,,,p001,2026-04-14_11h58.44.848,Flanker Compatibility Task,,2026.1.1,118.82256342489471,2026-04-14 11h58.45.136358 +0800
3,diamond,cong,-10,l,2,87,87,0,l,1,0.9691736999666318,None,,,,,0,87,87,122,137.4955913000158,,,,,,,,137.48958380002296,137.9835846000351,138.95564780000132,,,,,,,,,,,l,1,0.9691736999666318,None,,,,,,p001,2026-04-14_11h58.44.848,Flanker Compatibility Task,,2026.1.1,118.82256342489471,2026-04-14 11h58.45.136358 +0800
4,square,incong,10,a,3,88,88,0,a,1,0.6852139999973588,None,,,,,0,88,88,165,138.9618768999935,,,,,,,,138.95714800001588,139.4586462000152,140.14543269999558,,,,,,,,,,,a,1,0.6852139999973588,None,,,,,,p001,2026-04-14_11h58.44.848,Flanker Compatibility Task,,2026.1.1,118.82256342489471,2026-04-14 11h58.45.136358 +0800
4,square,incong,10,a,5,89,89,0,a,1,0.6630802000290714,None,,,,,0,89,89,167,140.15342410001904,,,,,,,,140.14687410002807,140.63883549999446,141.30418909998843,,,,,,,,,,,a,1,0.6630802000290714,None,,,,,,p001,2026-04-14_11h58.44.848,Flanker Compatibility Task,,2026.1.1,118.82256342489471,2026-04-14 11h58.45.136358 +0800
2,square,incong,-10,a,3,90,90,0,l,0,0.6859122999594547,None,,,,,0,90,90,63,141.31177160004154,,,,,,,,141.30512390000513,141.80246600002283,142.49524030002067,,,,,,,,,,,l,0,0.6859122999594547,None,,,,,,p001,2026-04-14_11h58.44.848,Flanker Compatibility Task,,2026.1.1,118.82256342489471,2026-04-14 11h58.45.136358 +0800
4,diamond,cong,-10,l,1,91,91,0,l,1,0.7361014999914914,None,,,,,0,91,91,169,142.5026248000213,,,,,,,,142.4963517000433,142.99082150001777,143.7284279000014,,,,,,,,,,,l,1,0.7361014999914914,None,,,,,,p001,2026-04-14_11h58.44.848,Flanker Compatibility Task,,2026.1.1,118.82256342489471,2026-04-14 11h58.45.136358 +0800
3,diamond,incong,10,l,3,92,92,0,l,1,0.8359969000448473,None,,,,,0,92,92,141,143.73592880001524,,,,,,,,143.72951730003115,144.22295850003138,145.06204889999935,,,,,,,,,,,l,1,0.8359969000448473,None,,,,,,p001,2026-04-14_11h58.44.848,Flanker Compatibility Task,,2026.1.1,118.82256342489471,2026-04-14 11h58.45.136358 +0800
3,diamond,incong,-10,l,5,93,93,0,l,1,0.8298476999625564,None,,,,,0,93,93,137,145.0687922,,,,,,,,145.0632757000276,145.56342190003488,146.39454170002136,,,,,,,,,,,l,1,0.8298476999625564,None,,,,,,p001,2026-04-14_11h58.44.848,Flanker Compatibility Task,,2026.1.1,118.82256342489471,2026-04-14 11h58.45.136358 +0800
1,diamond,cong,10,l,3,94,94,0,l,1,0.5437172999954782,None,,,,,0,94,94,33,146.40172140003415,,,,,,,,146.3958219999913,146.88764540001284,147.4366505999933,,,,,,,,,,,l,1,0.5437172999954782,None,,,,,,p001,2026-04-14_11h58.44.848,Flanker Compatibility Task,,2026.1.1,118.82256342489471,2026-04-14 11h58.45.136358 +0800
1,diamond,incong,10,l,0,95,95,0,l,1,0.40716549998614937,None,,,,,0,95,95,42,147.44314839999424,,,,,,,,147.4379559000372,147.93826900003478,148.3525159000419,,,,,,,,,,,l,1,0.40716549998614937,None,,,,,,p001,2026-04-14_11h58.44.848,Flanker Compatibility Task,,2026.1.1,118.82256342489471,2026-04-14 11h58.45.136358 +0800
3,square,incong,-10,a,1,96,96,0,a,1,0.5874651999911293,None,,,,,0,96,96,109,148.3601874,,,,,,,,148.35386160004418,148.84615310002118,149.43601170001784,,,,,,,,,,,a,1,0.5874651999911293,None,,,,,,p001,2026-04-14_11h58.44.848,Flanker Compatibility Task,,2026.1.1,118.82256342489471,2026-04-14 11h58.45.136358 +0800
1,square,cong,10,a,1,97,97,0,a,1,0.42187369999010116,None,,,,,0,97,97,7,149.4428153,,,,,,,,149.43725670001004,149.93060459999833,150.3598411999992,,,,,,,,,,,a,1,0.42187369999010116,None,,,,,,p001,2026-04-14_11h58.44.848,Flanker Compatibility Task,,2026.1.1,118.82256342489471,2026-04-14 11h58.45.136358 +0800
4,square,cong,-10,a,4,98,98,0,a,1,0.64048,None,,,,,0,98,98,148,150.36800710001262,,,,,,,,150.3612867000047,150.85469629999716,151.50141080003232,,,,,,,,,,,a,1,0.64048,None,,,,,,p001,2026-04-14_11h58.44.848,Flanker Compatibility Task,,2026.1.1,118.82256342489471,2026-04-14 11h58.45.136358 +0800
1,square,incong,10,a,4,99,99,0,a,1,0.3953025999944657,None,,,,,0,99,99,22,151.50853340001777,,,,,,,,151.5025583000388,151.9963698000065,152.3935626000166,,,,,,,,,,,a,1,0.3953025999944657,None,,,,,,p001,2026-04-14_11h58.44.848,Flanker Compatibility Task,,2026.1.1,118.82256342489471,2026-04-14 11h58.45.136358 +0800
1,square,cong,-10,a,1,100,100,0,a,1,0.4610796000342816,None,,,,,0,100,100,1,152.4003992000362,,,,,,,,152.39485460001742,152.88665520003997,153.35140750004211,,,,,,,,,,,a,1,0.4610796000342816,None,,,,,,p001,2026-04-14_11h58.44.848,Flanker Compatibility Task,,2026.1.1,118.82256342489471,2026-04-14 11h58.45.136358 +0800
1,diamond,cong,10,l,1,101,101,0,l,1,0.4575730999931693,None,,,,,0,101,101,31,153.3589727000217,,,,,,,,153.3526970000239,153.85386610002024,154.31714320002357,,,,,,,,,,,l,1,0.4575730999931693,None,,,,,,p001,2026-04-14_11h58.44.848,Flanker Compatibility Task,,2026.1.1,118.82256342489471,2026-04-14 11h58.45.136358 +0800
2,diamond,incong,-10,l,0,102,102,0,a,0,0.4235037000034936,None,,,,,0,102,102,84,154.32569810003042,,,,,,,,154.31836470001144,154.8119417,155.2429267000407,,,,,,,,,,,a,0,0.4235037000034936,None,,,,,,p001,2026-04-14_11h58.44.848,Flanker Compatibility Task,,2026.1.1,118.82256342489471,2026-04-14 11h58.45.136358 +0800
2,diamond,incong,10,l,4,103,103,0,l,1,0.9728169000009075,None,,,,,0,103,103,94,155.2501648000325,,,,,,,,155.24427220004145,155.7445854000398,156.71816829999443,,,,,,,,,,,l,1,0.9728169000009075,None,,,,,,p001,2026-04-14_11h58.44.848,Flanker Compatibility Task,,2026.1.1,118.82256342489471,2026-04-14 11h58.45.136358 +0800
4,square,incong,-10,a,2,104,104,0,a,1,0.7510017000022344,None,,,,,0,104,104,158,156.72436130000278,,,,,,,,156.71980910003185,157.21853489999194,157.97456689999672,,,,,,,,,,,a,1,0.7510017000022344,None,,,,,,p001,2026-04-14_11h58.44.848,Flanker Compatibility Task,,2026.1.1,118.82256342489471,2026-04-14 11h58.45.136358 +0800
4,diamond,incong,-10,l,5,105,105,0,l,1,1.2051297000143677,None,,,,,0,105,105,185,157.9829404000193,,,,,,,,157.97601829998894,158.47027119999984,159.67640029999893,,,,,,,,,,,l,1,1.2051297000143677,None,,,,,,p001,2026-04-14_11h58.44.848,Flanker Compatibility Task,,2026.1.1,118.82256342489471,2026-04-14 11h58.45.136358 +0800
2,square,incong,-10,a,1,106,106,0,a,1,0.6108160000294447,None,,,,,0,106,106,61,159.68243869999424,,,,,,,,159.6777031000238,160.1764573000255,160.79092540004058,,,,,,,,,,,a,1,0.6108160000294447,None,,,,,,p001,2026-04-14_11h58.44.848,Flanker Compatibility Task,,2026.1.1,118.82256342489471,2026-04-14 11h58.45.136358 +0800
1,diamond,incong,10,l,3,107,107,0,l,1,0.6724479999975301,None,,,,,0,107,107,45,160.79826469998807,,,,,,,,160.79210389999207,161.2849053,161.96593060001032,,,,,,,,,,,l,1,0.6724479999975301,None,,,,,,p001,2026-04-14_11h58.44.848,Flanker Compatibility Task,,2026.1.1,118.82256342489471,2026-04-14 11h58.45.136358 +0800
1,square,cong,10,a,3,108,108,0,l,0,0.6212264000205323,None,,,,,0,108,108,9,161.97320960002253,,,,,,,,161.96717830002308,162.45936010003788,163.0828801000025,,,,,,,,,,,l,0,0.6212264000205323,None,,,,,,p001,2026-04-14_11h58.44.848,Flanker Compatibility Task,,2026.1.1,118.82256342489471,2026-04-14 11h58.45.136358 +0800
1,diamond,incong,-10,l,5,109,109,0,l,1,0.7122165000182576,None,,,,,0,109,109,41,163.08931010001106,,,,,,,,163.0841603000299,163.58494770003017,164.29913709999528,,,,,,,,,,,l,1,0.7122165000182576,None,,,,,,p001,2026-04-14_11h58.44.848,Flanker Compatibility Task,,2026.1.1,118.82256342489471,2026-04-14 11h58.45.136358 +0800
1,diamond,incong,10,l,2,110,110,0,a,0,0.6517123999656178,None,,,,,0,110,110,44,164.30530180002097,,,,,,,,164.30045020004036,164.8021543000359,165.45662469998933,,,,,,,,,,,a,0,0.6517123999656178,None,,,,,,p001,2026-04-14_11h58.44.848,Flanker Compatibility Task,,2026.1.1,118.82256342489471,2026-04-14 11h58.45.136358 +0800
4,diamond,incong,10,l,3,111,111,0,l,1,1.010749599954579,None,,,,,0,111,111,189,165.4644127000356,,,,,,,,165.45815349998884,165.9515680000186,166.96509120002156,,,,,,,,,,,l,1,1.010749599954579,None,,,,,,p001,2026-04-14_11h58.44.848,Flanker Compatibility Task,,2026.1.1,118.82256342489471,2026-04-14 11h58.45.136358 +0800
3,diamond,cong,-10,l,0,112,112,0,l,1,0.6384559000143781,None,,,,,0,112,112,120,166.9716762,,,,,,,,166.9665441000252,167.45982039999217,168.10645780002233,,,,,,,,,,,l,1,0.6384559000143781,None,,,,,,p001,2026-04-14_11h58.44.848,Flanker Compatibility Task,,2026.1.1,118.82256342489471,2026-04-14 11h58.45.136358 +0800
1,square,cong,-10,a,0,113,113,0,a,1,0.5418582999845967,None,,,,,0,113,113,0,168.11365930002648,,,,,,,,168.10772480000742,168.60811660002219,169.1553460000432,,,,,,,,,,,a,1,0.5418582999845967,None,,,,,,p001,2026-04-14_11h58.44.848,Flanker Compatibility Task,,2026.1.1,118.82256342489471,2026-04-14 11h58.45.136358 +0800
2,square,cong,-10,a,3,114,114,0,a,1,0.8354282000218518,None,,,,,0,114,114,51,169.1628558000084,,,,,,,,169.15634440002032,169.64997339999536,170.48855380003806,,,,,,,,,,,a,1,0.8354282000218518,None,,,,,,p001,2026-04-14_11h58.44.848,Flanker Compatibility Task,,2026.1.1,118.82256342489471,2026-04-14 11h58.45.136358 +0800
2,diamond,cong,-10,l,1,115,115,0,l,1,0.7874872999964282,None,,,,,0,115,115,73,170.4956891000038,,,,,,,,170.48958789999597,170.9827476000064,171.77128139999695,,,,,,,,,,,l,1,0.7874872999964282,None,,,,,,p001,2026-04-14_11h58.44.848,Flanker Compatibility Task,,2026.1.1,118.82256342489471,2026-04-14 11h58.45.136358 +0800
4,diamond,incong,10,l,4,116,116,0,a,0,1.0900908999610692,None,,,,,0,116,116,190,171.77878400002373,,,,,,,,171.77270850003697,172.2723617000156,173.36368680000305,,,,,,,,,,,a,0,1.0900908999610692,None,,,,,,p001,2026-04-14_11h58.44.848,Flanker Compatibility Task,,2026.1.1,118.82256342489471,2026-04-14 11h58.45.136358 +0800
3,diamond,incong,10,l,4,117,117,0,l,1,1.5489750999840908,None,,,,,0,117,117,142,173.3709375000326,,,,,,,,173.36512060003588,173.8643180000363,175.42121020000195,,,,,,,,,,,l,1,1.5489750999840908,None,,,,,,p001,2026-04-14_11h58.44.848,Flanker Compatibility Task,,2026.1.1,118.82256342489471,2026-04-14 11h58.45.136358 +0800
2,diamond,incong,10,l,2,118,118,0,l,1,0.7513918999466114,None,,,,,0,118,118,92,175.428665,,,,,,,,175.42242340004304,175.92206760001136,176.67895810003392,,,,,,,,,,,l,1,0.7513918999466114,None,,,,,,p001,2026-04-14_11h58.44.848,Flanker Compatibility Task,,2026.1.1,118.82256342489471,2026-04-14 11h58.45.136358 +0800
1,diamond,cong,-10,l,0,119,119,0,l,1,0.5484763999702409,None,,,,,0,119,119,24,176.68685390002793,,,,,,,,176.68013829999836,177.17316870001378,177.72916849999456,,,,,,,,,,,l,1,0.5484763999702409,None,,,,,,p001,2026-04-14_11h58.44.848,Flanker Compatibility Task,,2026.1.1,118.82256342489471,2026-04-14 11h58.45.136358 +0800
1,diamond,incong,10,l,4,120,120,0,l,1,0.8231593999662437,None,,,,,0,120,120,46,177.7362668000278,,,,,,,,177.73033430002397,178.22295090003172,179.0531015000306,,,,,,,,,,,l,1,0.8231593999662437,None,,,,,,p001,2026-04-14_11h58.44.848,Flanker Compatibility Task,,2026.1.1,118.82256342489471,2026-04-14 11h58.45.136358 +0800
3,square,cong,10,a,2,121,121,0,a,1,0.7340642000199296,None,,,,,0,121,121,104,179.06113410001853,,,,,,,,179.05445659998804,179.5481860000291,180.29238460003398,,,,,,,,,,,a,1,0.7340642000199296,None,,,,,,p001,2026-04-14_11h58.44.848,Flanker Compatibility Task,,2026.1.1,118.82256342489471,2026-04-14 11h58.45.136358 +0800
2,square,cong,10,a,4,122,122,0,a,1,0.8541681000497192,None,,,,,0,122,122,58,180.3061682000407,,,,,,,,180.29501100000925,180.78748060000362,181.64417410001624,,,,,,,,,,,a,1,0.8541681000497192,None,,,,,,p001,2026-04-14_11h58.44.848,Flanker Compatibility Task,,2026.1.1,118.82256342489471,2026-04-14 11h58.45.136358 +0800
4,diamond,cong,-10,l,5,123,123,0,l,1,1.1092633999651298,None,,,,,0,123,123,173,181.65162330004387,,,,,,,,181.64556650002487,182.13837420003256,183.25147950003156,,,,,,,,,,,l,1,1.1092633999651298,None,,,,,,p001,2026-04-14_11h58.44.848,Flanker Compatibility Task,,2026.1.1,118.82256342489471,2026-04-14 11h58.45.136358 +0800
3,diamond,incong,10,l,5,124,124,0,l,1,0.7312382999807596,None,,,,,0,124,124,143,183.25968160002958,,,,,,,,183.25253900000826,183.74716690002242,184.48571979999542,,,,,,,,,,,l,1,0.7312382999807596,None,,,,,,p001,2026-04-14_11h58.44.848,Flanker Compatibility Task,,2026.1.1,118.82256342489471,2026-04-14 11h58.45.136358 +0800
3,square,cong,-10,a,3,125,125,0,a,1,1.1440588,None,,,,,0,125,125,99,184.49308919999748,,,,,,,,184.48725110001396,184.98854120000033,186.13539050001418,,,,,,,,,,,a,1,1.1440588,None,,,,,,p001,2026-04-14_11h58.44.848,Flanker Compatibility Task,,2026.1.1,118.82256342489471,2026-04-14 11h58.45.136358 +0800
3,diamond,cong,-10,l,3,126,126,0,l,1,0.7808507000445388,None,,,,,0,126,126,123,186.14185580000049,,,,,,,,186.13682489999337,186.63670259999344,187.4258661000058,,,,,,,,,,,l,1,0.7808507000445388,None,,,,,,p001,2026-04-14_11h58.44.848,Flanker Compatibility Task,,2026.1.1,118.82256342489471,2026-04-14 11h58.45.136358 +0800
3,diamond,cong,10,l,3,127,127,0,a,0,0.9551716,None,,,,,0,127,127,129,187.4329951,,,,,,,,187.42728140001418,187.92115539999213,188.88529609999387,,,,,,,,,,,a,0,0.9551716,None,,,,,,p001,2026-04-14_11h58.44.848,Flanker Compatibility Task,,2026.1.1,118.82256342489471,2026-04-14 11h58.45.136358 +0800
2,diamond,cong,10,l,1,128,128,0,l,1,0.7902752999798395,None,,,,,0,128,128,79,188.89261550002266,,,,,,,,188.8866556,189.38708580000093,190.18492060003337,,,,,,,,,,,l,1,0.7902752999798395,None,,,,,,p001,2026-04-14_11h58.44.848,Flanker Compatibility Task,,2026.1.1,118.82256342489471,2026-04-14 11h58.45.136358 +0800
1,diamond,incong,-10,l,2,129,129,0,l,1,0.6648633999866433,None,,,,,0,129,129,38,190.1914927,,,,,,,,190.18634730001213,190.6871298000333,191.3579052000423,,,,,,,,,,,l,1,0.6648633999866433,None,,,,,,p001,2026-04-14_11h58.44.848,Flanker Compatibility Task,,2026.1.1,118.82256342489471,2026-04-14 11h58.45.136358 +0800
3,square,cong,10,a,3,130,130,0,a,1,1.270358200010378,None,,,,,0,130,130,105,191.36551319999853,,,,,,,,191.3589626,191.8534815000021,193.12548809999134,,,,,,,,,,,a,1,1.270358200010378,None,,,,,,p001,2026-04-14_11h58.44.848,Flanker Compatibility Task,,2026.1.1,118.82256342489471,2026-04-14 11h58.45.136358 +0800
3,square,incong,-10,a,5,131,131,0,l,0,0.9655005999957211,None,,,,,0,131,131,113,193.13183720002417,,,,,,,,193.12689419998787,193.62680440000258,194.59932290000143,,,,,,,,,,,l,0,0.9655005999957211,None,,,,,,p001,2026-04-14_11h58.44.848,Flanker Compatibility Task,,2026.1.1,118.82256342489471,2026-04-14 11h58.45.136358 +0800
4,square,cong,10,a,0,132,132,0,a,1,0.8061286000302061,None,,,,,0,132,132,150,194.60760340001434,,,,,,,,194.60078420001082,195.0952918000403,195.90709430002607,,,,,,,,,,,a,1,0.8061286000302061,None,,,,,,p001,2026-04-14_11h58.44.848,Flanker Compatibility Task,,2026.1.1,118.82256342489471,2026-04-14 11h58.45.136358 +0800
2,diamond,incong,-10,l,4,133,133,0,l,1,0.7745182000217028,None,,,,,0,133,133,88,195.91443030000664,,,,,,,,195.90805430000182,196.4021021000226,197.1826582000358,,,,,,,,,,,l,1,0.7745182000217028,None,,,,,,p001,2026-04-14_11h58.44.848,Flanker Compatibility Task,,2026.1.1,118.82256342489471,2026-04-14 11h58.45.136358 +0800
1,square,incong,-10,a,0,134,134,0,a,1,0.5687696999520995,None,,,,,0,134,134,12,197.19024399999762,,,,,,,,197.1840098000248,197.68068039999343,198.25706380000338,,,,,,,,,,,a,1,0.5687696999520995,None,,,,,,p001,2026-04-14_11h58.44.848,Flanker Compatibility Task,,2026.1.1,118.82256342489471,2026-04-14 11h58.45.136358 +0800
4,diamond,incong,-10,l,1,135,135,0,l,1,1.285657300031744,None,,,,,0,135,135,181,198.2647755999933,,,,,,,,198.25858449999942,198.75817250000546,200.04833230003715,,,,,,,,,,,l,1,1.285657300031744,None,,,,,,p001,2026-04-14_11h58.44.848,Flanker Compatibility Task,,2026.1.1,118.82256342489471,2026-04-14 11h58.45.136358 +0800
1,square,cong,-10,a,4,136,136,0,a,1,0.5739065000088885,None,,,,,0,136,136,4,200.0558748000185,,,,,,,,200.04935079999268,200.542753,201.12328270002035,,,,,,,,,,,a,1,0.5739065000088885,None,,,,,,p001,2026-04-14_11h58.44.848,Flanker Compatibility Task,,2026.1.1,118.82256342489471,2026-04-14 11h58.45.136358 +0800
4,diamond,cong,10,l,2,137,137,0,l,1,1.1341499999980442,None,,,,,0,137,137,176,201.13187219999963,,,,,,,,201.1248135000351,201.62642280000728,202.76451440004166,,,,,,,,,,,l,1,1.1341499999980442,None,,,,,,p001,2026-04-14_11h58.44.848,Flanker Compatibility Task,,2026.1.1,118.82256342489471,2026-04-14 11h58.45.136358 +0800
3,square,incong,10,a,1,138,138,0,l,0,1.8141005000215955,None,,,,,0,138,138,115,202.77097670000512,,,,,,,,202.7659629000118,203.2592481999891,205.0796771000023,,,,,,,,,,,l,0,1.8141005000215955,None,,,,,,p001,2026-04-14_11h58.44.848,Flanker Compatibility Task,,2026.1.1,118.82256342489471,2026-04-14 11h58.45.136358 +0800
2,diamond,incong,10,l,5,139,139,0,l,1,0.9242192000383511,None,,,,,0,139,139,95,205.0880075999885,,,,,,,,205.08090130001074,205.5749991000048,206.50554039998678,,,,,,,,,,,l,1,0.9242192000383511,None,,,,,,p001,2026-04-14_11h58.44.848,Flanker Compatibility Task,,2026.1.1,118.82256342489471,2026-04-14 11h58.45.136358 +0800
3,square,incong,10,a,4,140,140,0,a,1,0.7651895000017248,None,,,,,0,140,140,118,206.51191450003535,,,,,,,,206.5070088999928,207.00702100002673,207.77889190003043,,,,,,,,,,,a,1,0.7651895000017248,None,,,,,,p001,2026-04-14_11h58.44.848,Flanker Compatibility Task,,2026.1.1,118.82256342489471,2026-04-14 11h58.45.136358 +0800
2,diamond,cong,10,l,4,141,141,0,l,1,1.1384772000019439,None,,,,,0,141,141,82,207.78663300001062,,,,,,,,207.78011019999394,208.27209310000762,209.41189779998967,,,,,,,,,,,l,1,1.1384772000019439,None,,,,,,p001,2026-04-14_11h58.44.848,Flanker Compatibility Task,,2026.1.1,118.82256342489471,2026-04-14 11h58.45.136358 +0800
4,square,incong,10,a,4,142,142,0,a,1,1.2868871000246145,None,,,,,0,142,142,166,209.41953260003356,,,,,,,,209.41322380001657,209.90780009998707,211.20475620002253,,,,,,,,,,,a,1,1.2868871000246145,None,,,,,,p001,2026-04-14_11h58.44.848,Flanker Compatibility Task,,2026.1.1,118.82256342489471,2026-04-14 11h58.45.136358 +0800
1,square,cong,10,a,2,143,143,0,a,1,0.5561372000374831,None,,,,,0,143,143,8,211.2114169000415,,,,,,,,211.20612009998877,211.70662830001675,212.26930960000027,,,,,,,,,,,a,1,0.5561372000374831,None,,,,,,p001,2026-04-14_11h58.44.848,Flanker Compatibility Task,,2026.1.1,118.82256342489471,2026-04-14 11h58.45.136358 +0800
4,square,cong,10,a,4,144,144,0,a,1,0.6691468999488279,None,,,,,0,144,144,154,212.27789470000425,,,,,,,,212.2707514000358,212.76548180001555,213.4359548999928,,,,,,,,,,,a,1,0.6691468999488279,None,,,,,,p001,2026-04-14_11h58.44.848,Flanker Compatibility Task,,2026.1.1,118.82256342489471,2026-04-14 11h58.45.136358 +0800
1,square,incong,-10,a,4,145,145,0,a,1,0.4917921999585815,None,,,,,0,145,145,16,213.44361389998812,,,,,,,,213.4372048000223,213.93074139999226,214.42890270001953,,,,,,,,,,,a,1,0.4917921999585815,None,,,,,,p001,2026-04-14_11h58.44.848,Flanker Compatibility Task,,2026.1.1,118.82256342489471,2026-04-14 11h58.45.136358 +0800
4,square,incong,-10,a,0,146,146,0,a,1,0.6190788000239991,None,,,,,0,146,146,156,214.43519620003644,,,,,,,,214.43048010003986,214.9308946999954,215.5528073000023,,,,,,,,,,,a,1,0.6190788000239991,None,,,,,,p001,2026-04-14_11h58.44.848,Flanker Compatibility Task,,2026.1.1,118.82256342489471,2026-04-14 11h58.45.136358 +0800
2,diamond,cong,-10,l,0,147,147,0,a,0,0.3788102000253275,None,,,,,0,147,147,72,215.55956690001767,,,,,,,,215.55474250001134,216.0566251000273,216.4432424000115,,,,,,,,,,,a,0,0.3788102000253275,None,,,,,,p001,2026-04-14_11h58.44.848,Flanker Compatibility Task,,2026.1.1,118.82256342489471,2026-04-14 11h58.45.136358 +0800
2,square,cong,10,a,2,148,148,0,a,1,0.8204535,None,,,,,0,148,148,56,216.45095830003265,,,,,,,,216.4445423000143,216.93858110002475,217.75971040001605,,,,,,,,,,,a,1,0.8204535,None,,,,,,p001,2026-04-14_11h58.44.848,Flanker Compatibility Task,,2026.1.1,118.82256342489471,2026-04-14 11h58.45.136358 +0800
1,square,incong,10,a,5,149,149,0,a,1,0.5674311999464408,None,,,,,0,149,149,23,217.7670175000094,,,,,,,,217.7606681000325,218.25459100003354,218.82778099999996,,,,,,,,,,,a,1,0.5674311999464408,None,,,,,,p001,2026-04-14_11h58.44.848,Flanker Compatibility Task,,2026.1.1,118.82256342489471,2026-04-14 11h58.45.136358 +0800
2,square,cong,-10,a,2,150,150,0,a,1,0.9612541000242345,None,,,,,0,150,150,50,218.83373150002444,,,,,,,,218.82911400002195,219.32928649999667,220.2931250000256,,,,,,,,,,,a,1,0.9612541000242345,None,,,,,,p001,2026-04-14_11h58.44.848,Flanker Compatibility Task,,2026.1.1,118.82256342489471,2026-04-14 11h58.45.136358 +0800
2,square,incong,10,a,4,151,151,0,a,1,0.6295635999995284,None,,,,,0,151,151,70,220.30000260000816,,,,,,,,220.29446260002442,220.78741809999337,221.41774120001355,,,,,,,,,,,a,1,0.6295635999995284,None,,,,,,p001,2026-04-14_11h58.44.848,Flanker Compatibility Task,,2026.1.1,118.82256342489471,2026-04-14 11h58.45.136358 +0800
1,diamond,cong,10,l,4,152,152,0,l,1,0.4186797000002116,None,,,,,0,152,152,34,221.4247699000407,,,,,,,,221.41891380003653,221.91275190003216,222.33456660003867,,,,,,,,,,,l,1,0.4186797000002116,None,,,,,,p001,2026-04-14_11h58.44.848,Flanker Compatibility Task,,2026.1.1,118.82256342489471,2026-04-14 11h58.45.136358 +0800
4,diamond,cong,10,l,4,153,153,0,l,1,1.3714919000049122,None,,,,,0,153,153,178,222.34134780004388,,,,,,,,222.3357468000031,222.83828610001365,224.21653989999322,,,,,,,,,,,l,1,1.3714919000049122,None,,,,,,p001,2026-04-14_11h58.44.848,Flanker Compatibility Task,,2026.1.1,118.82256342489471,2026-04-14 11h58.45.136358 +0800
2,diamond,cong,-10,l,5,154,154,0,l,1,0.6096176999853924,None,,,,,0,154,154,77,224.22433679999085,,,,,,,,224.2178072000388,224.71757290000096,225.33319430000847,,,,,,,,,,,l,1,0.6096176999853924,None,,,,,,p001,2026-04-14_11h58.44.848,Flanker Compatibility Task,,2026.1.1,118.82256342489471,2026-04-14 11h58.45.136358 +0800
2,square,incong,10,a,5,155,155,0,l,0,2.0784871999640018,None,,,,,0,155,155,71,225.34072570002172,,,,,,,,225.33445040002698,225.82781550002983,227.9078637000057,,,,,,,,,,,l,0,2.0784871999640018,None,,,,,,p001,2026-04-14_11h58.44.848,Flanker Compatibility Task,,2026.1.1,118.82256342489471,2026-04-14 11h58.45.136358 +0800
2,diamond,cong,10,l,3,156,156,0,l,1,1.1829619000200182,None,,,,,0,156,156,81,227.9147718999884,,,,,,,,227.90917240001727,228.4105247000116,229.5993821999873,,,,,,,,,,,l,1,1.1829619000200182,None,,,,,,p001,2026-04-14_11h58.44.848,Flanker Compatibility Task,,2026.1.1,118.82256342489471,2026-04-14 11h58.45.136358 +0800
3,square,cong,10,a,0,157,157,0,a,1,0.7925442000268959,None,,,,,0,157,157,102,229.6062695000437,,,,,,,,229.60118880000664,230.0933117000386,230.8908373999875,,,,,,,,,,,a,1,0.7925442000268959,None,,,,,,p001,2026-04-14_11h58.44.848,Flanker Compatibility Task,,2026.1.1,118.82256342489471,2026-04-14 11h58.45.136358 +0800
3,diamond,cong,10,l,1,158,158,0,l,1,1.4221168999793008,None,,,,,0,158,158,127,230.89731160004158,,,,,,,,230.89233950001653,231.38440760003868,232.80771470000036,,,,,,,,,,,l,1,1.4221168999793008,None,,,,,,p001,2026-04-14_11h58.44.848,Flanker Compatibility Task,,2026.1.1,118.82256342489471,2026-04-14 11h58.45.136358 +0800
1,diamond,incong,-10,l,0,159,159,0,l,1,0.6531215000431985,None,,,,,0,159,159,36,232.81365970004117,,,,,,,,232.80895640002564,233.30989969999064,233.96510800003307,,,,,,,,,,,l,1,0.6531215000431985,None,,,,,,p001,2026-04-14_11h58.44.848,Flanker Compatibility Task,,2026.1.1,118.82256342489471,2026-04-14 11h58.45.136358 +0800
4,diamond,cong,-10,l,4,160,160,0,l,1,1.7644164999946952,None,,,,,0,160,160,172,233.9720847000135,,,,,,,,233.96666169998934,234.45999440003652,236.2303893000353,,,,,,,,,,,l,1,1.7644164999946952,None,,,,,,p001,2026-04-14_11h58.44.848,Flanker Compatibility Task,,2026.1.1,118.82256342489471,2026-04-14 11h58.45.136358 +0800
3,diamond,incong,10,l,1,161,161,0,l,1,2.315881700022146,None,,,,,0,161,161,139,236.2384170999867,,,,,,,,236.2318976999959,236.72602890001144,239.04741570004262,,,,,,,,,,,l,1,2.315881700022146,None,,,,,,p001,2026-04-14_11h58.44.848,Flanker Compatibility Task,,2026.1.1,118.82256342489471,2026-04-14 11h58.45.136358 +0800
4,diamond,cong,10,l,0,162,162,0,l,1,1.445649900007993,None,,,,,0,162,162,174,239.05379550001817,,,,,,,,239.0489738000324,239.55077860003803,241.0045735000167,,,,,,,,,,,l,1,1.445649900007993,None,,,,,,p001,2026-04-14_11h58.44.848,Flanker Compatibility Task,,2026.1.1,118.82256342489471,2026-04-14 11h58.45.136358 +0800
4,diamond,incong,10,l,1,163,163,0,l,1,0.7181953000253998,None,,,,,0,163,163,187,241.01163670001552,,,,,,,,241.0063427000423,241.50002229999518,242.22135760000674,,,,,,,,,,,l,1,0.7181953000253998,None,,,,,,p001,2026-04-14_11h58.44.848,Flanker Compatibility Task,,2026.1.1,118.82256342489471,2026-04-14 11h58.45.136358 +0800
1,square,incong,10,a,0,164,164,0,a,1,0.6644834000035189,None,,,,,0,164,164,18,242.22793390002334,,,,,,,,242.22261880000588,242.71487060002983,243.38677730003837,,,,,,,,,,,a,1,0.6644834000035189,None,,,,,,p001,2026-04-14_11h58.44.848,Flanker Compatibility Task,,2026.1.1,118.82256342489471,2026-04-14 11h58.45.136358 +0800
2,diamond,incong,-10,l,2,165,165,0,l,1,0.9953378000063822,None,,,,,0,165,165,86,243.3943547999952,,,,,,,,243.38794680003775,243.88215010002023,244.87921020004433,,,,,,,,,,,l,1,0.9953378000063822,None,,,,,,p001,2026-04-14_11h58.44.848,Flanker Compatibility Task,,2026.1.1,118.82256342489471,2026-04-14 11h58.45.136358 +0800
2,square,incong,-10,a,4,166,166,0,a,1,0.8321324999560602,None,,,,,0,166,166,64,244.88544819998788,,,,,,,,244.8805303000263,245.3798480000114,246.21270969999023,,,,,,,,,,,a,1,0.8321324999560602,None,,,,,,p001,2026-04-14_11h58.44.848,Flanker Compatibility Task,,2026.1.1,118.82256342489471,2026-04-14 11h58.45.136358 +0800
1,diamond,cong,-10,l,4,167,167,0,a,0,0.4463222000049427,None,,,,,0,167,167,28,246.21848310000496,,,,,,,,246.21398440003395,246.71449620003114,247.1618749999907,,,,,,,,,,,a,0,0.4463222000049427,None,,,,,,p001,2026-04-14_11h58.44.848,Flanker Compatibility Task,,2026.1.1,118.82256342489471,2026-04-14 11h58.45.136358 +0800
1,diamond,incong,-10,l,3,168,168,0,l,1,0.7157663999823853,None,,,,,0,168,168,39,247.16848769999342,,,,,,,,247.16313310002442,247.6557106000255,248.37673429999268,,,,,,,,,,,l,1,0.7157663999823853,None,,,,,,p001,2026-04-14_11h58.44.848,Flanker Compatibility Task,,2026.1.1,118.82256342489471,2026-04-14 11h58.45.136358 +0800
4,square,incong,-10,a,1,169,169,0,a,1,0.7437736000283621,None,,,,,0,169,169,157,248.38444280001568,,,,,,,,248.3781588000129,248.8732425000053,249.61867500003427,,,,,,,,,,,a,1,0.7437736000283621,None,,,,,,p001,2026-04-14_11h58.44.848,Flanker Compatibility Task,,2026.1.1,118.82256342489471,2026-04-14 11h58.45.136358 +0800
3,diamond,incong,10,l,2,170,170,0,l,1,1.3591870000236668,None,,,,,0,170,170,140,249.62656070000958,,,,,,,,249.61996380001074,250.1196757000289,251.4845383000211,,,,,,,,,,,l,1,1.3591870000236668,None,,,,,,p001,2026-04-14_11h58.44.848,Flanker Compatibility Task,,2026.1.1,118.82256342489471,2026-04-14 11h58.45.136358 +0800
2,square,cong,10,a,5,171,171,0,a,1,0.6371445000404492,None,,,,,0,171,171,59,251.4922351000132,,,,,,,,251.48596240003826,251.97866339999018,252.61798270000145,,,,,,,,,,,a,1,0.6371445000404492,None,,,,,,p001,2026-04-14_11h58.44.848,Flanker Compatibility Task,,2026.1.1,118.82256342489471,2026-04-14 11h58.45.136358 +0800
3,diamond,incong,-10,l,4,172,172,0,l,1,1.5800493999850005,None,,,,,0,172,172,136,252.62520090001635,,,,,,,,252.61938320001354,253.1119105000398,254.69316910003545,,,,,,,,,,,l,1,1.5800493999850005,None,,,,,,p001,2026-04-14_11h58.44.848,Flanker Compatibility Task,,2026.1.1,118.82256342489471,2026-04-14 11h58.45.136358 +0800
2,diamond,incong,-10,l,3,173,173,0,l,1,0.8557712999754585,None,,,,,0,173,173,87,254.69998540001689,,,,,,,,254.69449860003078,255.18828830000712,256.05033709999407,,,,,,,,,,,l,1,0.8557712999754585,None,,,,,,p001,2026-04-14_11h58.44.848,Flanker Compatibility Task,,2026.1.1,118.82256342489471,2026-04-14 11h58.45.136358 +0800
2,diamond,cong,-10,l,3,174,174,0,l,1,0.6052598000387661,None,,,,,0,174,174,75,256.05871160002425,,,,,,,,256.05153530003736,256.54567930003395,257.1517375000403,,,,,,,,,,,l,1,0.6052598000387661,None,,,,,,p001,2026-04-14_11h58.44.848,Flanker Compatibility Task,,2026.1.1,118.82256342489471,2026-04-14 11h58.45.136358 +0800
1,diamond,cong,-10,l,2,175,175,0,l,1,0.5298571000457741,None,,,,,0,175,175,26,257.1573299000156,,,,,,,,257.1530547000002,257.6489754000213,258.18437370000174,,,,,,,,,,,l,1,0.5298571000457741,None,,,,,,p001,2026-04-14_11h58.44.848,Flanker Compatibility Task,,2026.1.1,118.82256342489471,2026-04-14 11h58.45.136358 +0800
3,square,cong,10,a,5,176,176,0,a,1,0.5791665999568067,None,,,,,0,176,176,107,258.1905178,,,,,,,,258.18580420000944,258.68738240003586,259.2673500000383,,,,,,,,,,,a,1,0.5791665999568067,None,,,,,,p001,2026-04-14_11h58.44.848,Flanker Compatibility Task,,2026.1.1,118.82256342489471,2026-04-14 11h58.45.136358 +0800
2,square,incong,-10,a,2,177,177,0,a,1,0.6235771999927238,None,,,,,0,177,177,62,259.2736586999963,,,,,,,,259.26873400004115,259.76540989999194,260.39175469998736,,,,,,,,,,,a,1,0.6235771999927238,None,,,,,,p001,2026-04-14_11h58.44.848,Flanker Compatibility Task,,2026.1.1,118.82256342489471,2026-04-14 11h58.45.136358 +0800
3,square,cong,10,a,1,178,178,0,a,1,1.9135936999809928,None,,,,,0,178,178,103,260.39856780000264,,,,,,,,260.39326149999397,260.8854726999998,262.8066861000261,,,,,,,,,,,a,1,1.9135936999809928,None,,,,,,p001,2026-04-14_11h58.44.848,Flanker Compatibility Task,,2026.1.1,118.82256342489471,2026-04-14 11h58.45.136358 +0800
2,square,cong,10,a,1,179,179,0,a,1,0.48639959999127313,None,,,,,0,179,179,55,262.81498800002737,,,,,,,,262.8079394000233,263.3028314000112,263.79063310002675,,,,,,,,,,,a,1,0.48639959999127313,None,,,,,,p001,2026-04-14_11h58.44.848,Flanker Compatibility Task,,2026.1.1,118.82256342489471,2026-04-14 11h58.45.136358 +0800
4,square,cong,10,a,5,180,180,0,a,1,0.7006352000171319,None,,,,,0,180,180,155,263.7978673999896,,,,,,,,263.7924190000049,264.28537649998907,264.9909181999974,,,,,,,,,,,a,1,0.7006352000171319,None,,,,,,p001,2026-04-14_11h58.44.848,Flanker Compatibility Task,,2026.1.1,118.82256342489471,2026-04-14 11h58.45.136358 +0800
2,square,cong,-10,a,4,181,181,0,a,1,0.7928704000078142,None,,,,,0,181,181,52,264.99724520003656,,,,,,,,264.9922533000354,265.49336349999066,266.2909409000422,,,,,,,,,,,a,1,0.7928704000078142,None,,,,,,p001,2026-04-14_11h58.44.848,Flanker Compatibility Task,,2026.1.1,118.82256342489471,2026-04-14 11h58.45.136358 +0800
1,diamond,cong,-10,l,1,182,182,0,l,1,0.6652219000388868,None,,,,,0,182,182,25,266.2970719000441,,,,,,,,266.29235699999845,266.79227890004404,267.4639545000391,,,,,,,,,,,l,1,0.6652219000388868,None,,,,,,p001,2026-04-14_11h58.44.848,Flanker Compatibility Task,,2026.1.1,118.82256342489471,2026-04-14 11h58.45.136358 +0800
1,diamond,incong,-10,l,4,183,183,0,l,1,0.47723519999999553,None,,,,,0,183,183,40,267.472293,,,,,,,,267.4653161999886,267.95855710003525,268.43971300002886,,,,,,,,,,,l,1,0.47723519999999553,None,,,,,,p001,2026-04-14_11h58.44.848,Flanker Compatibility Task,,2026.1.1,118.82256342489471,2026-04-14 11h58.45.136358 +0800
3,diamond,cong,-10,l,5,184,184,0,l,1,0.5992779000080191,None,,,,,0,184,184,125,268.4464353,,,,,,,,268.44117430003826,268.9339752999949,269.5398273000028,,,,,,,,,,,l,1,0.5992779000080191,None,,,,,,p001,2026-04-14_11h58.44.848,Flanker Compatibility Task,,2026.1.1,118.82256342489471,2026-04-14 11h58.45.136358 +0800
4,square,cong,-10,a,2,185,185,0,a,1,0.8998680000077002,None,,,,,0,185,185,146,269.54632040002616,,,,,,,,269.5414123000228,270.04163650004193,270.94636250002077,,,,,,,,,,,a,1,0.8998680000077002,None,,,,,,p001,2026-04-14_11h58.44.848,Flanker Compatibility Task,,2026.1.1,118.82256342489471,2026-04-14 11h58.45.136358 +0800
4,square,incong,-10,a,5,186,186,0,a,1,0.47785929997917265,None,,,,,0,186,186,161,270.9548561000265,,,,,,,,270.94779200002085,271.44277870003134,271.9222646,,,,,,,,,,,a,1,0.47785929997917265,None,,,,,,p001,2026-04-14_11h58.44.848,Flanker Compatibility Task,,2026.1.1,118.82256342489471,2026-04-14 11h58.45.136358 +0800
4,square,cong,-10,a,3,187,187,0,a,1,1.836108300019987,None,,,,,0,187,187,147,271.92866720003076,,,,,,,,271.92420880001737,272.41782189998776,274.2567163000349,,,,,,,,,,,a,1,1.836108300019987,None,,,,,,p001,2026-04-14_11h58.44.848,Flanker Compatibility Task,,2026.1.1,118.82256342489471,2026-04-14 11h58.45.136358 +0800
3,square,incong,10,a,3,188,188,0,a,1,0.7203438000287861,None,,,,,0,188,188,117,274.2627006000257,,,,,,,,274.25819790002424,274.7592117000022,275.4801720000105,,,,,,,,,,,a,1,0.7203438000287861,None,,,,,,p001,2026-04-14_11h58.44.848,Flanker Compatibility Task,,2026.1.1,118.82256342489471,2026-04-14 11h58.45.136358 +0800
1,diamond,incong,10,l,1,189,189,0,l,1,0.7521773,None,,,,,0,189,189,43,275.4874226000393,,,,,,,,275.48134030000074,275.97435490001226,276.72944250004366,,,,,,,,,,,l,1,0.7521773,None,,,,,,p001,2026-04-14_11h58.44.848,Flanker Compatibility Task,,2026.1.1,118.82256342489471,2026-04-14 11h58.45.136358 +0800
1,diamond,cong,-10,l,3,190,190,0,l,1,0.7124501999933273,None,,,,,0,190,190,27,276.73773880000226,,,,,,,,276.7306193000404,277.2244050000445,277.9384565000073,,,,,,,,,,,l,1,0.7124501999933273,None,,,,,,p001,2026-04-14_11h58.44.848,Flanker Compatibility Task,,2026.1.1,118.82256342489471,2026-04-14 11h58.45.136358 +0800
2,diamond,incong,10,l,1,191,191,0,l,1,1.044678499980364,None,,,,,0,191,191,91,277.9448949000216,,,,,,,,277.94011020002654,278.43861650000326,279.4876448000432,,,,,,,,,,,l,1,1.044678499980364,None,,,,,,p001,2026-04-14_11h58.44.848,Flanker Compatibility Task,,2026.1.1,118.82256342489471,2026-04-14 11h58.45.136358 +0800
,,,,,,,,,,,,,,,,,,,,,,,,,,,,,,,,,,,,,,,,,,,,,,279.4878367999918,281.16131679998944,space,1.658997599966824,None,p001,2026-04-14_11h58.44.848,Flanker Compatibility Task,,2026.1.1,118.82256342489471,2026-04-14 11h58.45.136358 +0800
