difficulty,target_type,condition,dist_pos_x,ans,target_idx,thisN,thisTrialN,thisRepN,Anskey.keys,Anskey.corr,Anskey.rt,Anskey.duration,Prac_Loop.thisRepN,Prac_Loop.thisTrialN,Prac_Loop.thisN,Prac_Loop.thisIndex,Trials_Loop.thisRepN,Trials_Loop.thisTrialN,Trials_Loop.thisN,Trials_Loop.thisIndex,thisRow.t,notes,piloting,Intro.started,Intro.stopped,Intro_keyresp.keys,Intro_keyresp.rt,Intro_keyresp.duration,Trial_Routine.started,Anskey.started,Trial_Routine.stopped,Prac_Loop.Anskey.keys,Prac_Loop.Anskey.corr,Prac_Loop.Anskey.rt,Prac_Loop.Anskey.duration,Ready.started,Ready.stopped,Ready_keyresp.keys,Ready_keyresp.rt,Ready_keyresp.duration,Trials_Loop.Anskey.keys,Trials_Loop.Anskey.corr,Trials_Loop.Anskey.rt,Trials_Loop.Anskey.duration,ThankYou.started,ThankYou.stopped,Thanks_keyresp.keys,Thanks_keyresp.rt,Thanks_keyresp.duration,participant,date,expName,expVersion,psychopyVersion,frameRate,expStart
,,,,,,,,,,,,,,,,,,,,,,,FALSE,0.0081018,7.306783100008033,space,6.804189500049688,None,,,,,,,,,,,,,,,,,,,,,,p002,2026-04-14_12h06.01.961,Flanker Compatibility Task,,2026.1.1,119.95815858291446,2026-04-14 12h06.02.271879 +0800
4,square,cong,10,a,5,0,0,0,a,1,1.8816070000175387,None,0,0,0,12,,,,,7.329830000002403,,,,,,,,7.321435099991504,7.801729400001932,9.690553900029045,a,1,1.8816070000175387,None,,,,,,,,,,,,,,,p002,2026-04-14_12h06.01.961,Flanker Compatibility Task,,2026.1.1,119.95815858291446,2026-04-14 12h06.02.271879 +0800
4,diamond,cong,-10,l,4,1,1,0,l,1,1.680995200003963,None,0,1,1,14,,,,,9.697948599990923,,,,,,,,9.691957100003492,10.186550200043712,11.874373400001787,l,1,1.680995200003963,None,,,,,,,,,,,,,,,p002,2026-04-14_12h06.01.961,Flanker Compatibility Task,,2026.1.1,119.95815858291446,2026-04-14 12h06.02.271879 +0800
3,diamond,cong,10,l,1,2,2,0,l,1,1.4654690999886952,None,0,2,2,10,,,,,11.88069220003672,,,,,,,,11.876399600005243,12.369594099989627,13.839627400040627,l,1,1.4654690999886952,None,,,,,,,,,,,,,,,p002,2026-04-14_12h06.01.961,Flanker Compatibility Task,,2026.1.1,119.95815858291446,2026-04-14 12h06.02.271879 +0800
2,diamond,cong,-10,l,3,3,3,0,l,1,1.1477203000104055,None,0,3,3,6,,,,,13.848219100036658,,,,,,,,13.840866100043058,14.333084400044754,15.490083000040613,l,1,1.1477203000104055,None,,,,,,,,,,,,,,,p002,2026-04-14_12h06.01.961,Flanker Compatibility Task,,2026.1.1,119.95815858291446,2026-04-14 12h06.02.271879 +0800
1,diamond,incong,-10,l,5,4,4,0,l,1,0.9381646999972872,None,0,4,4,3,,,,,15.496615800017025,,,,,,,,15.491356200014707,15.991541300027166,16.931252700043842,l,1,0.9381646999972872,None,,,,,,,,,,,,,,,p002,2026-04-14_12h06.01.961,Flanker Compatibility Task,,2026.1.1,119.95815858291446,2026-04-14 12h06.02.271879 +0800
2,square,cong,10,a,5,5,5,0,a,1,0.6852347999811172,None,0,5,5,4,,,,,16.937760500004515,,,,,,,,16.932606899994425,17.430330300005153,18.122446800000034,a,1,0.6852347999811172,None,,,,,,,,,,,,,,,p002,2026-04-14_12h06.01.961,Flanker Compatibility Task,,2026.1.1,119.95815858291446,2026-04-14 12h06.02.271879 +0800
3,square,cong,-10,a,1,6,6,0,a,1,1.1320374999777414,None,0,6,6,8,,,,,18.129873000027146,,,,,,,,18.123871800024062,18.62673720001476,19.763807900017127,a,1,1.1320374999777414,None,,,,,,,,,,,,,,,p002,2026-04-14_12h06.01.961,Flanker Compatibility Task,,2026.1.1,119.95815858291446,2026-04-14 12h06.02.271879 +0800
1,square,incong,10,a,3,7,7,0,a,1,0.6897043000208214,None,0,7,7,1,,,,,19.77110830001766,,,,,,,,19.764961800014134,20.266662600042764,20.962753700034227,a,1,0.6897043000208214,None,,,,,,,,,,,,,,,p002,2026-04-14_12h06.01.961,Flanker Compatibility Task,,2026.1.1,119.95815858291446,2026-04-14 12h06.02.271879 +0800
4,diamond,incong,10,l,2,8,8,0,l,1,1.246986900048796,None,0,8,8,15,,,,,20.9707008,,,,,,,,20.96462030004477,21.464515600004233,22.716017200029455,l,1,1.246986900048796,None,,,,,,,,,,,,,,,p002,2026-04-14_12h06.01.961,Flanker Compatibility Task,,2026.1.1,119.95815858291446,2026-04-14 12h06.02.271879 +0800
2,square,incong,-10,a,2,9,9,0,a,1,0.8088919000001624,None,0,9,9,5,,,,,22.724029700038955,,,,,,,,22.71719860000303,23.21499930002028,24.024560899997596,a,1,0.8088919000001624,None,,,,,,,,,,,,,,,p002,2026-04-14_12h06.01.961,Flanker Compatibility Task,,2026.1.1,119.95815858291446,2026-04-14 12h06.02.271879 +0800
1,square,cong,-10,a,1,10,10,0,a,1,0.791257,None,0,10,10,0,,,,,24.031321200018283,,,,,,,,24.02569450001465,24.517564800044056,25.31505490001291,a,1,0.791257,None,,,,,,,,,,,,,,,p002,2026-04-14_12h06.01.961,Flanker Compatibility Task,,2026.1.1,119.95815858291446,2026-04-14 12h06.02.271879 +0800
2,diamond,incong,10,l,0,11,11,0,l,1,0.8118507000035606,None,0,11,11,7,,,,,25.32244640000863,,,,,,,,25.316244199988432,25.809184600017034,26.623798299988266,l,1,0.8118507000035606,None,,,,,,,,,,,,,,,p002,2026-04-14_12h06.01.961,Flanker Compatibility Task,,2026.1.1,119.95815858291446,2026-04-14 12h06.02.271879 +0800
3,diamond,incong,-10,l,4,12,12,0,l,1,0.9593680000398308,None,0,12,12,11,,,,,26.630502399988472,,,,,,,,26.62522839999292,27.119355700036976,28.08086430002004,l,1,0.9593680000398308,None,,,,,,,,,,,,,,,p002,2026-04-14_12h06.01.961,Flanker Compatibility Task,,2026.1.1,119.95815858291446,2026-04-14 12h06.02.271879 +0800
3,square,incong,10,a,5,13,13,0,a,1,0.6590571000124328,None,0,13,13,9,,,,,28.088738900027238,,,,,,,,28.082224300014786,28.576413100003265,29.23940980003681,a,1,0.6590571000124328,None,,,,,,,,,,,,,,,p002,2026-04-14_12h06.01.961,Flanker Compatibility Task,,2026.1.1,119.95815858291446,2026-04-14 12h06.02.271879 +0800
4,square,incong,-10,a,1,14,14,0,a,1,0.8350548000307754,None,0,14,14,13,,,,,29.246846200025175,,,,,,,,29.240817000041716,29.734955099993385,30.571917799999937,a,1,0.8350548000307754,None,,,,,,,,,,,,,,,p002,2026-04-14_12h06.01.961,Flanker Compatibility Task,,2026.1.1,119.95815858291446,2026-04-14 12h06.02.271879 +0800
1,diamond,cong,10,l,0,15,15,0,l,1,0.5546623000409454,None,0,15,15,2,,,,,30.579624100006185,,,,,,,,30.573196700017434,31.0681718,31.630228900001384,l,1,0.5546623000409454,None,,,,,,,,,,,,,,,p002,2026-04-14_12h06.01.961,Flanker Compatibility Task,,2026.1.1,119.95815858291446,2026-04-14 12h06.02.271879 +0800
,,,,,,,,,,,,,,,,,,,,,,,,,,,,,,,,,,,,31.63039690000005,35.04681299999356,space,2.9235365000204183,None,,,,,,,,,,p002,2026-04-14_12h06.01.961,Flanker Compatibility Task,,2026.1.1,119.95815858291446,2026-04-14 12h06.02.271879 +0800
4,diamond,incong,10,l,2,0,0,0,l,1,1.5368267999729142,None,,,,,0,0,0,188,35.117636000039056,,,,,,,,35.10501679999288,35.54727159999311,37.085727800033055,,,,,,,,,,l,1,1.5368267999729142,None,,,,,,p002,2026-04-14_12h06.01.961,Flanker Compatibility Task,,2026.1.1,119.95815858291446,2026-04-14 12h06.02.271879 +0800
4,diamond,incong,-10,l,3,1,1,0,l,1,1.5467031999723986,None,,,,,0,1,1,183,37.09258799999952,,,,,,,,37.0876883,37.588541400036775,39.14259609999135,,,,,,,,,,l,1,1.5467031999723986,None,,,,,,p002,2026-04-14_12h06.01.961,Flanker Compatibility Task,,2026.1.1,119.95815858291446,2026-04-14 12h06.02.271879 +0800
2,diamond,incong,10,l,2,2,2,0,l,1,0.8119242999819107,None,,,,,0,2,2,92,39.15010920003988,,,,,,,,39.143902600044385,39.636123900010716,40.45029260002775,,,,,,,,,,l,1,0.8119242999819107,None,,,,,,p002,2026-04-14_12h06.01.961,Flanker Compatibility Task,,2026.1.1,119.95815858291446,2026-04-14 12h06.02.271879 +0800
4,square,incong,-10,a,5,3,3,0,a,1,1.0084861999494024,None,,,,,0,3,3,161,40.45826889999444,,,,,,,,40.45192620001035,40.946272400033195,41.959114,,,,,,,,,,a,1,1.0084861999494024,None,,,,,,p002,2026-04-14_12h06.01.961,Flanker Compatibility Task,,2026.1.1,119.95815858291446,2026-04-14 12h06.02.271879 +0800
3,square,incong,10,a,1,4,4,0,a,1,0.7701113999937661,None,,,,,0,4,4,115,41.966048900038004,,,,,,,,41.96052610001061,42.45507030002773,43.22584339999594,,,,,,,,,,a,1,0.7701113999937661,None,,,,,,p002,2026-04-14_12h06.01.961,Flanker Compatibility Task,,2026.1.1,119.95815858291446,2026-04-14 12h06.02.271879 +0800
2,diamond,incong,-10,l,3,5,5,0,l,1,0.9582273,None,,,,,0,5,5,87,43.23263780004345,,,,,,,,43.2270634,43.72752830001991,44.69205180002609,,,,,,,,,,l,1,0.9582273,None,,,,,,p002,2026-04-14_12h06.01.961,Flanker Compatibility Task,,2026.1.1,119.95815858291446,2026-04-14 12h06.02.271879 +0800
2,diamond,cong,-10,l,5,6,6,0,l,1,0.8251766000175849,None,,,,,0,6,6,77,44.6991507,,,,,,,,44.69334410002921,45.19532490003621,46.02420600003097,,,,,,,,,,l,1,0.8251766000175849,None,,,,,,p002,2026-04-14_12h06.01.961,Flanker Compatibility Task,,2026.1.1,119.95815858291446,2026-04-14 12h06.02.271879 +0800
3,diamond,cong,10,l,0,7,7,0,l,1,1.1527628999901935,None,,,,,0,7,7,126,46.03188329999102,,,,,,,,46.02564830001211,46.52114560001064,47.68185180000728,,,,,,,,,,l,1,1.1527628999901935,None,,,,,,p002,2026-04-14_12h06.01.961,Flanker Compatibility Task,,2026.1.1,119.95815858291446,2026-04-14 12h06.02.271879 +0800
2,square,cong,-10,a,3,8,8,0,a,1,0.7410462999832816,None,,,,,0,8,8,51,47.689645800041035,,,,,,,,47.6827296,48.17608340003062,48.9237231,,,,,,,,,,a,1,0.7410462999832816,None,,,,,,p002,2026-04-14_12h06.01.961,Flanker Compatibility Task,,2026.1.1,119.95815858291446,2026-04-14 12h06.02.271879 +0800
1,square,cong,10,a,5,9,9,0,a,1,0.6701789000071585,None,,,,,0,9,9,11,48.931335200031754,,,,,,,,48.92479740001727,49.42514619999565,50.09839870000724,,,,,,,,,,a,1,0.6701789000071585,None,,,,,,p002,2026-04-14_12h06.01.961,Flanker Compatibility Task,,2026.1.1,119.95815858291446,2026-04-14 12h06.02.271879 +0800
3,square,incong,-10,a,4,10,10,0,a,1,1.169032200006768,None,,,,,0,10,10,112,50.10617330000969,,,,,,,,50.09973489999538,50.597098400001414,51.77279240003554,,,,,,,,,,a,1,1.169032200006768,None,,,,,,p002,2026-04-14_12h06.01.961,Flanker Compatibility Task,,2026.1.1,119.95815858291446,2026-04-14 12h06.02.271879 +0800
1,square,incong,-10,a,2,11,11,0,a,1,0.6312979999929667,None,,,,,0,11,11,14,51.7804614,,,,,,,,51.77376609999919,52.27374050003709,52.906724700005725,,,,,,,,,,a,1,0.6312979999929667,None,,,,,,p002,2026-04-14_12h06.01.961,Flanker Compatibility Task,,2026.1.1,119.95815858291446,2026-04-14 12h06.02.271879 +0800
2,diamond,incong,10,l,1,12,12,0,l,1,0.9973048000247218,None,,,,,0,12,12,91,52.91323900001589,,,,,,,,52.90824590000557,53.40503730002092,54.40638250001939,,,,,,,,,,l,1,0.9973048000247218,None,,,,,,p002,2026-04-14_12h06.01.961,Flanker Compatibility Task,,2026.1.1,119.95815858291446,2026-04-14 12h06.02.271879 +0800
4,diamond,cong,-10,l,2,13,13,0,l,1,1.1682835000101477,None,,,,,0,13,13,170,54.41313890001038,,,,,,,,54.40822520002257,54.90740200004075,56.079937600006815,,,,,,,,,,l,1,1.1682835000101477,None,,,,,,p002,2026-04-14_12h06.01.961,Flanker Compatibility Task,,2026.1.1,119.95815858291446,2026-04-14 12h06.02.271879 +0800
4,square,cong,10,a,2,14,14,0,a,1,0.8529380999971181,None,,,,,0,14,14,152,56.08755250001559,,,,,,,,56.08151440002257,56.57451659999788,57.42963249998866,,,,,,,,,,a,1,0.8529380999971181,None,,,,,,p002,2026-04-14_12h06.01.961,Flanker Compatibility Task,,2026.1.1,119.95815858291446,2026-04-14 12h06.02.271879 +0800
1,diamond,incong,-10,l,2,15,15,0,l,1,0.9841601999942213,None,,,,,0,15,15,38,57.437213300028816,,,,,,,,57.43077690002974,57.924205899995286,58.91303340002196,,,,,,,,,,l,1,0.9841601999942213,None,,,,,,p002,2026-04-14_12h06.01.961,Flanker Compatibility Task,,2026.1.1,119.95815858291446,2026-04-14 12h06.02.271879 +0800
4,diamond,incong,10,l,4,16,16,0,l,1,0.9849439000245184,None,,,,,0,16,16,190,58.92028020002181,,,,,,,,58.9146066,59.41791540000122,60.4120284,,,,,,,,,,l,1,0.9849439000245184,None,,,,,,p002,2026-04-14_12h06.01.961,Flanker Compatibility Task,,2026.1.1,119.95815858291446,2026-04-14 12h06.02.271879 +0800
4,square,incong,-10,a,0,17,17,0,a,1,0.8881734000169672,None,,,,,0,17,17,156,60.4197493,,,,,,,,60.41308770002797,60.90325380000286,61.795984200027306,,,,,,,,,,a,1,0.8881734000169672,None,,,,,,p002,2026-04-14_12h06.01.961,Flanker Compatibility Task,,2026.1.1,119.95815858291446,2026-04-14 12h06.02.271879 +0800
1,square,incong,-10,a,0,18,18,0,a,1,0.6615412,None,,,,,0,18,18,12,61.80290190002415,,,,,,,,61.797238900035154,62.299516100028995,62.96973710000748,,,,,,,,,,a,1,0.6615412,None,,,,,,p002,2026-04-14_12h06.01.961,Flanker Compatibility Task,,2026.1.1,119.95815858291446,2026-04-14 12h06.02.271879 +0800
4,diamond,cong,-10,l,1,19,19,0,l,1,0.8267724000033922,None,,,,,0,19,19,169,62.97745470004156,,,,,,,,62.971303900005296,63.46095420001075,64.29495210002642,,,,,,,,,,l,1,0.8267724000033922,None,,,,,,p002,2026-04-14_12h06.01.961,Flanker Compatibility Task,,2026.1.1,119.95815858291446,2026-04-14 12h06.02.271879 +0800
2,diamond,cong,10,l,5,20,20,0,l,1,1.5591340999817476,None,,,,,0,20,20,83,64.30289280001307,,,,,,,,64.2961873,64.78991670004325,66.35282580001513,,,,,,,,,,l,1,1.5591340999817476,None,,,,,,p002,2026-04-14_12h06.01.961,Flanker Compatibility Task,,2026.1.1,119.95815858291446,2026-04-14 12h06.02.271879 +0800
1,diamond,incong,10,l,5,21,21,0,l,1,0.5497029999969527,None,,,,,0,21,21,47,66.3606205,,,,,,,,66.35371540003689,66.84710549999727,67.40328110003611,,,,,,,,,,l,1,0.5497029999969527,None,,,,,,p002,2026-04-14_12h06.01.961,Flanker Compatibility Task,,2026.1.1,119.95815858291446,2026-04-14 12h06.02.271879 +0800
1,square,cong,10,a,4,22,22,0,a,1,0.7245189000386745,None,,,,,0,22,22,10,67.41015890002018,,,,,,,,67.40456100000301,67.89767520001624,68.62706840003375,,,,,,,,,,a,1,0.7245189000386745,None,,,,,,p002,2026-04-14_12h06.01.961,Flanker Compatibility Task,,2026.1.1,119.95815858291446,2026-04-14 12h06.02.271879 +0800
4,square,cong,10,a,5,23,23,0,a,1,0.9095306000090204,None,,,,,0,23,23,155,68.63462160003837,,,,,,,,68.62855190003756,69.12170600000536,70.03494820004562,,,,,,,,,,a,1,0.9095306000090204,None,,,,,,p002,2026-04-14_12h06.01.961,Flanker Compatibility Task,,2026.1.1,119.95815858291446,2026-04-14 12h06.02.271879 +0800
3,square,cong,10,a,2,24,24,0,a,1,0.8957477000076324,None,,,,,0,24,24,104,70.04226509999717,,,,,,,,70.0362688,70.52974540001014,71.42606329999398,,,,,,,,,,a,1,0.8957477000076324,None,,,,,,p002,2026-04-14_12h06.01.961,Flanker Compatibility Task,,2026.1.1,119.95815858291446,2026-04-14 12h06.02.271879 +0800
3,square,cong,-10,a,3,25,25,0,a,1,0.9406576000037603,None,,,,,0,25,25,99,71.43384960002732,,,,,,,,71.42724730004556,71.92274150002049,72.86773769999854,,,,,,,,,,a,1,0.9406576000037603,None,,,,,,p002,2026-04-14_12h06.01.961,Flanker Compatibility Task,,2026.1.1,119.95815858291446,2026-04-14 12h06.02.271879 +0800
1,diamond,incong,-10,l,3,26,26,0,l,1,0.6724161999882199,None,,,,,0,26,26,39,72.87630569998873,,,,,,,,72.86891130002914,73.36253570002737,74.03600000002189,,,,,,,,,,l,1,0.6724161999882199,None,,,,,,p002,2026-04-14_12h06.01.961,Flanker Compatibility Task,,2026.1.1,119.95815858291446,2026-04-14 12h06.02.271879 +0800
2,square,incong,-10,a,5,27,27,0,a,1,0.8908183,None,,,,,0,27,27,65,74.04241340002045,,,,,,,,74.03794900001958,74.53730429999996,75.43359140004031,,,,,,,,,,a,1,0.8908183,None,,,,,,p002,2026-04-14_12h06.01.961,Flanker Compatibility Task,,2026.1.1,119.95815858291446,2026-04-14 12h06.02.271879 +0800
2,square,incong,10,a,0,28,28,0,a,1,0.8098132999730296,None,,,,,0,28,28,66,75.44198770000366,,,,,,,,75.43483370001195,75.92821109999204,76.74143970001023,,,,,,,,,,a,1,0.8098132999730296,None,,,,,,p002,2026-04-14_12h06.01.961,Flanker Compatibility Task,,2026.1.1,119.95815858291446,2026-04-14 12h06.02.271879 +0800
1,square,cong,10,a,0,29,29,0,a,1,0.5908742999890819,None,,,,,0,29,29,6,76.7493079,,,,,,,,76.74272660003044,77.23457050003344,77.83276240003761,,,,,,,,,,a,1,0.5908742999890819,None,,,,,,p002,2026-04-14_12h06.01.961,Flanker Compatibility Task,,2026.1.1,119.95815858291446,2026-04-14 12h06.02.271879 +0800
3,square,cong,-10,a,2,30,30,0,a,1,0.6654837,None,,,,,0,30,30,98,77.84049940004479,,,,,,,,77.8339122,78.32761149998987,78.99920870002825,,,,,,,,,,a,1,0.6654837,None,,,,,,p002,2026-04-14_12h06.01.961,Flanker Compatibility Task,,2026.1.1,119.95815858291446,2026-04-14 12h06.02.271879 +0800
1,diamond,incong,10,l,4,31,31,0,l,1,0.5795600999845192,None,,,,,0,31,31,46,79.00780050002504,,,,,,,,79.00054020003881,79.4958684,80.08248060004553,,,,,,,,,,l,1,0.5795600999845192,None,,,,,,p002,2026-04-14_12h06.01.961,Flanker Compatibility Task,,2026.1.1,119.95815858291446,2026-04-14 12h06.02.271879 +0800
3,diamond,cong,10,l,1,32,32,0,l,1,1.2010435999836773,None,,,,,0,32,32,127,80.09000980004203,,,,,,,,80.0838056,80.57868720003171,81.78229800000554,,,,,,,,,,l,1,1.2010435999836773,None,,,,,,p002,2026-04-14_12h06.01.961,Flanker Compatibility Task,,2026.1.1,119.95815858291446,2026-04-14 12h06.02.271879 +0800
4,diamond,cong,-10,l,4,33,33,0,l,1,0.9399905999889597,None,,,,,0,33,33,172,81.78952089999802,,,,,,,,81.78361470001983,82.27810250001494,83.22346450004261,,,,,,,,,,l,1,0.9399905999889597,None,,,,,,p002,2026-04-14_12h06.01.961,Flanker Compatibility Task,,2026.1.1,119.95815858291446,2026-04-14 12h06.02.271879 +0800
4,diamond,incong,-10,l,4,34,34,0,l,1,1.2593356000143103,None,,,,,0,34,34,184,83.23234190000221,,,,,,,,83.22490170004312,83.72346490004566,84.99001020001015,,,,,,,,,,l,1,1.2593356000143103,None,,,,,,p002,2026-04-14_12h06.01.961,Flanker Compatibility Task,,2026.1.1,119.95815858291446,2026-04-14 12h06.02.271879 +0800
3,diamond,incong,10,l,0,35,35,0,l,1,0.9025017,None,,,,,0,35,35,138,84.99788800004171,,,,,,,,84.991461,85.4893842,86.39821410004515,,,,,,,,,,l,1,0.9025017,None,,,,,,p002,2026-04-14_12h06.01.961,Flanker Compatibility Task,,2026.1.1,119.95815858291446,2026-04-14 12h06.02.271879 +0800
3,diamond,cong,10,l,3,36,36,0,l,1,0.9954989000107162,None,,,,,0,36,36,129,86.4059111,,,,,,,,86.39998660003766,86.893479,87.8969268,,,,,,,,,,l,1,0.9954989000107162,None,,,,,,p002,2026-04-14_12h06.01.961,Flanker Compatibility Task,,2026.1.1,119.95815858291446,2026-04-14 12h06.02.271879 +0800
1,diamond,cong,10,l,0,37,37,0,l,1,0.6321793000097387,None,,,,,0,37,37,30,87.90466050000396,,,,,,,,87.89815379999345,88.39305360004073,89.03113700001268,,,,,,,,,,l,1,0.6321793000097387,None,,,,,,p002,2026-04-14_12h06.01.961,Flanker Compatibility Task,,2026.1.1,119.95815858291446,2026-04-14 12h06.02.271879 +0800
4,diamond,incong,-10,l,2,38,38,0,l,1,1.1318132999585941,None,,,,,0,38,38,182,89.03757809998933,,,,,,,,89.03267079999205,89.53489619999891,90.67346250003902,,,,,,,,,,l,1,1.1318132999585941,None,,,,,,p002,2026-04-14_12h06.01.961,Flanker Compatibility Task,,2026.1.1,119.95815858291446,2026-04-14 12h06.02.271879 +0800
3,diamond,cong,10,l,5,39,39,0,l,1,0.7150610000244342,None,,,,,0,39,39,131,90.67966990004061,,,,,,,,90.6750012,91.17272920004325,91.89695130003383,,,,,,,,,,l,1,0.7150610000244342,None,,,,,,p002,2026-04-14_12h06.01.961,Flanker Compatibility Task,,2026.1.1,119.95815858291446,2026-04-14 12h06.02.271879 +0800
1,diamond,incong,-10,l,4,40,40,0,l,1,0.7571248000022024,None,,,,,0,40,40,40,91.90504230000079,,,,,,,,91.89813650003634,92.39138660003664,93.15544290002435,,,,,,,,,,l,1,0.7571248000022024,None,,,,,,p002,2026-04-14_12h06.01.961,Flanker Compatibility Task,,2026.1.1,119.95815858291446,2026-04-14 12h06.02.271879 +0800
1,diamond,cong,-10,l,0,41,41,0,l,1,0.7573115000268444,None,,,,,0,41,41,24,93.1634915,,,,,,,,93.15675319998991,93.65647779998835,94.42063440004131,,,,,,,,,,l,1,0.7573115000268444,None,,,,,,p002,2026-04-14_12h06.01.961,Flanker Compatibility Task,,2026.1.1,119.95815858291446,2026-04-14 12h06.02.271879 +0800
2,diamond,incong,-10,l,5,42,42,0,l,1,0.6450082000228576,None,,,,,0,42,42,89,94.42950860003475,,,,,,,,94.42188860004535,94.91527699999278,95.56308200000785,,,,,,,,,,l,1,0.6450082000228576,None,,,,,,p002,2026-04-14_12h06.01.961,Flanker Compatibility Task,,2026.1.1,119.95815858291446,2026-04-14 12h06.02.271879 +0800
1,square,cong,-10,a,4,43,43,0,a,1,0.7233274000464007,None,,,,,0,43,43,4,95.57024780003121,,,,,,,,95.56436640000902,96.05728760000784,96.78864969999995,,,,,,,,,,a,1,0.7233274000464007,None,,,,,,p002,2026-04-14_12h06.01.961,Flanker Compatibility Task,,2026.1.1,119.95815858291446,2026-04-14 12h06.02.271879 +0800
3,diamond,cong,-10,l,4,44,44,0,l,1,1.1106351999915205,None,,,,,0,44,44,124,96.79514940001536,,,,,,,,96.79003730003024,97.29138539999258,98.40477870003087,,,,,,,,,,l,1,1.1106351999915205,None,,,,,,p002,2026-04-14_12h06.01.961,Flanker Compatibility Task,,2026.1.1,119.95815858291446,2026-04-14 12h06.02.271879 +0800
2,square,cong,10,a,1,45,45,0,a,1,0.7415945,None,,,,,0,45,45,55,98.41109950002283,,,,,,,,98.40615500003332,98.90553250000812,99.65359770000214,,,,,,,,,,a,1,0.7415945,None,,,,,,p002,2026-04-14_12h06.01.961,Flanker Compatibility Task,,2026.1.1,119.95815858291446,2026-04-14 12h06.02.271879 +0800
3,square,cong,-10,a,0,46,46,0,a,1,0.6306980000226758,None,,,,,0,46,46,96,99.66152560000774,,,,,,,,99.65522990003228,100.15429650002625,100.78713040001458,,,,,,,,,,a,1,0.6306980000226758,None,,,,,,p002,2026-04-14_12h06.01.961,Flanker Compatibility Task,,2026.1.1,119.95815858291446,2026-04-14 12h06.02.271879 +0800
1,square,incong,10,a,5,47,47,0,a,1,0.5972856999724172,None,,,,,0,47,47,23,100.79402400000254,,,,,,,,100.78841470001498,101.28935360000469,101.8877705000341,,,,,,,,,,a,1,0.5972856999724172,None,,,,,,p002,2026-04-14_12h06.01.961,Flanker Compatibility Task,,2026.1.1,119.95815858291446,2026-04-14 12h06.02.271879 +0800
2,square,cong,-10,a,0,48,48,0,a,1,0.5849466000217944,None,,,,,0,48,48,48,101.89588480000384,,,,,,,,101.88910180004314,102.3892618000391,102.97804710001219,,,,,,,,,,a,1,0.5849466000217944,None,,,,,,p002,2026-04-14_12h06.01.961,Flanker Compatibility Task,,2026.1.1,119.95815858291446,2026-04-14 12h06.02.271879 +0800
1,square,cong,-10,a,2,49,49,0,a,1,0.610928,None,,,,,0,49,49,2,102.98497270001099,,,,,,,,102.97967400000198,103.4808377000154,104.09456380002666,,,,,,,,,,a,1,0.610928,None,,,,,,p002,2026-04-14_12h06.01.961,Flanker Compatibility Task,,2026.1.1,119.95815858291446,2026-04-14 12h06.02.271879 +0800
4,diamond,cong,10,l,0,50,50,0,l,1,0.6394531999831088,None,,,,,0,50,50,174,104.10061550000682,,,,,,,,104.0959497,104.59796230000211,105.24269919999642,,,,,,,,,,l,1,0.6394531999831088,None,,,,,,p002,2026-04-14_12h06.01.961,Flanker Compatibility Task,,2026.1.1,119.95815858291446,2026-04-14 12h06.02.271879 +0800
3,diamond,cong,10,l,4,51,51,0,l,1,0.7734058999922127,None,,,,,0,51,51,130,105.25047850003466,,,,,,,,105.24368290003622,105.74015580001287,106.51868939999258,,,,,,,,,,l,1,0.7734058999922127,None,,,,,,p002,2026-04-14_12h06.01.961,Flanker Compatibility Task,,2026.1.1,119.95815858291446,2026-04-14 12h06.02.271879 +0800
3,diamond,incong,10,l,5,52,52,0,l,1,0.8339182,None,,,,,0,52,52,143,106.52640400000382,,,,,,,,106.52029590000166,107.01348940003663,107.85056550003355,,,,,,,,,,l,1,0.8339182,None,,,,,,p002,2026-04-14_12h06.01.961,Flanker Compatibility Task,,2026.1.1,119.95815858291446,2026-04-14 12h06.02.271879 +0800
2,square,incong,-10,a,1,53,53,0,a,1,0.7144247000105679,None,,,,,0,53,53,61,107.85920470004203,,,,,,,,107.85197770001832,108.34508480003569,109.0604958999902,,,,,,,,,,a,1,0.7144247000105679,None,,,,,,p002,2026-04-14_12h06.01.961,Flanker Compatibility Task,,2026.1.1,119.95815858291446,2026-04-14 12h06.02.271879 +0800
2,diamond,cong,-10,l,4,54,54,0,l,1,0.8159517,None,,,,,0,54,54,76,109.06708030001028,,,,,,,,109.06185150000965,109.5607086000382,110.38417530001607,,,,,,,,,,l,1,0.8159517,None,,,,,,p002,2026-04-14_12h06.01.961,Flanker Compatibility Task,,2026.1.1,119.95815858291446,2026-04-14 12h06.02.271879 +0800
3,diamond,cong,-10,l,1,55,55,0,l,1,1.0505252999719232,None,,,,,0,55,55,121,110.39213590003783,,,,,,,,110.38551759999245,110.88484600000083,111.94178510003258,,,,,,,,,,l,1,1.0505252999719232,None,,,,,,p002,2026-04-14_12h06.01.961,Flanker Compatibility Task,,2026.1.1,119.95815858291446,2026-04-14 12h06.02.271879 +0800
2,square,cong,10,a,3,56,56,0,a,1,0.7124283000011928,None,,,,,0,56,56,57,111.94875380001031,,,,,,,,111.94359020004049,112.43830189999426,113.15875380003126,,,,,,,,,,a,1,0.7124283000011928,None,,,,,,p002,2026-04-14_12h06.01.961,Flanker Compatibility Task,,2026.1.1,119.95815858291446,2026-04-14 12h06.02.271879 +0800
2,diamond,cong,10,l,1,57,57,0,l,1,0.7518819000106305,None,,,,,0,57,57,79,113.16669440001715,,,,,,,,113.16019950003829,113.6554508000263,114.40875080000842,,,,,,,,,,l,1,0.7518819000106305,None,,,,,,p002,2026-04-14_12h06.01.961,Flanker Compatibility Task,,2026.1.1,119.95815858291446,2026-04-14 12h06.02.271879 +0800
4,diamond,cong,10,l,5,58,58,0,l,1,0.7857674999977462,None,,,,,0,58,58,179,114.41569100000197,,,,,,,,114.41028720000759,114.91123970004264,115.69983820000198,,,,,,,,,,l,1,0.7857674999977462,None,,,,,,p002,2026-04-14_12h06.01.961,Flanker Compatibility Task,,2026.1.1,119.95815858291446,2026-04-14 12h06.02.271879 +0800
2,square,incong,-10,a,4,59,59,0,a,1,0.6501761000254191,None,,,,,0,59,59,64,115.70621219999157,,,,,,,,115.70125420001568,116.19361220003339,116.84879830002319,,,,,,,,,,a,1,0.6501761000254191,None,,,,,,p002,2026-04-14_12h06.01.961,Flanker Compatibility Task,,2026.1.1,119.95815858291446,2026-04-14 12h06.02.271879 +0800
1,diamond,cong,-10,l,5,60,60,0,l,1,0.7593542999820784,None,,,,,0,60,60,29,116.85671650001314,,,,,,,,116.85053410002729,117.34515549999196,118.10749500000384,,,,,,,,,,l,1,0.7593542999820784,None,,,,,,p002,2026-04-14_12h06.01.961,Flanker Compatibility Task,,2026.1.1,119.95815858291446,2026-04-14 12h06.02.271879 +0800
4,square,incong,10,a,4,61,61,0,a,1,0.9496854,None,,,,,0,61,61,166,118.11479130003136,,,,,,,,118.10911530000158,118.61223279999103,119.56635020003887,,,,,,,,,,a,1,0.9496854,None,,,,,,p002,2026-04-14_12h06.01.961,Flanker Compatibility Task,,2026.1.1,119.95815858291446,2026-04-14 12h06.02.271879 +0800
2,diamond,cong,10,l,4,62,62,0,l,1,0.8527416000142694,None,,,,,0,62,62,82,119.57354820001638,,,,,,,,119.56783740001265,120.06779430003371,120.9225238999934,,,,,,,,,,l,1,0.8527416000142694,None,,,,,,p002,2026-04-14_12h06.01.961,Flanker Compatibility Task,,2026.1.1,119.95815858291446,2026-04-14 12h06.02.271879 +0800
1,diamond,incong,10,l,1,63,63,0,l,1,0.8976633,None,,,,,0,63,63,43,120.92966090003029,,,,,,,,120.92392259999178,121.41785500000697,122.32289619999938,,,,,,,,,,l,1,0.8976633,None,,,,,,p002,2026-04-14_12h06.01.961,Flanker Compatibility Task,,2026.1.1,119.95815858291446,2026-04-14 12h06.02.271879 +0800
2,diamond,incong,10,l,3,64,64,0,l,1,0.8011532000382431,None,,,,,0,64,64,93,122.33045280002989,,,,,,,,122.32452100003138,122.8235872000223,123.63070810004137,,,,,,,,,,l,1,0.8011532000382431,None,,,,,,p002,2026-04-14_12h06.01.961,Flanker Compatibility Task,,2026.1.1,119.95815858291446,2026-04-14 12h06.02.271879 +0800
4,square,incong,10,a,3,65,65,0,a,1,0.7737739000003785,None,,,,,0,65,65,165,123.63782210001955,,,,,,,,123.63228399999207,124.12623100000201,124.90562620002311,,,,,,,,,,a,1,0.7737739000003785,None,,,,,,p002,2026-04-14_12h06.01.961,Flanker Compatibility Task,,2026.1.1,119.95815858291446,2026-04-14 12h06.02.271879 +0800
2,square,cong,-10,a,1,66,66,0,a,1,0.6933176000020467,None,,,,,0,66,66,49,124.9131311000092,,,,,,,,124.90691690001404,125.39870330004487,126.09615830000257,,,,,,,,,,a,1,0.6933176000020467,None,,,,,,p002,2026-04-14_12h06.01.961,Flanker Compatibility Task,,2026.1.1,119.95815858291446,2026-04-14 12h06.02.271879 +0800
2,diamond,cong,10,l,2,67,67,0,l,1,0.6354279000079259,None,,,,,0,67,67,80,126.10420350002823,,,,,,,,126.09712620003847,126.59992030001013,127.23733410000568,,,,,,,,,,l,1,0.6354279000079259,None,,,,,,p002,2026-04-14_12h06.01.961,Flanker Compatibility Task,,2026.1.1,119.95815858291446,2026-04-14 12h06.02.271879 +0800
4,diamond,cong,10,l,4,68,68,0,l,1,0.9515397999784909,None,,,,,0,68,68,178,127.24575800000457,,,,,,,,127.23874280002201,127.73417640000116,128.68720720004058,,,,,,,,,,l,1,0.9515397999784909,None,,,,,,p002,2026-04-14_12h06.01.961,Flanker Compatibility Task,,2026.1.1,119.95815858291446,2026-04-14 12h06.02.271879 +0800
3,square,incong,-10,a,3,69,69,0,a,1,0.7205399,None,,,,,0,69,69,111,128.6952750000055,,,,,,,,128.68874410004355,129.18403709999984,129.91183610004373,,,,,,,,,,a,1,0.7205399,None,,,,,,p002,2026-04-14_12h06.01.961,Flanker Compatibility Task,,2026.1.1,119.95815858291446,2026-04-14 12h06.02.271879 +0800
4,diamond,incong,-10,l,5,70,70,0,a,0,1.0749660999863409,None,,,,,0,70,70,185,129.9193889000453,,,,,,,,129.91333250002936,130.4134711,131.49453940003878,,,,,,,,,,a,0,1.0749660999863409,None,,,,,,p002,2026-04-14_12h06.01.961,Flanker Compatibility Task,,2026.1.1,119.95815858291446,2026-04-14 12h06.02.271879 +0800
1,square,cong,10,a,3,71,71,0,a,1,0.9833148999605328,None,,,,,0,71,71,9,131.50237300002482,,,,,,,,131.4958384000347,131.98647100001108,132.97083060001023,,,,,,,,,,a,1,0.9833148999605328,None,,,,,,p002,2026-04-14_12h06.01.961,Flanker Compatibility Task,,2026.1.1,119.95815858291446,2026-04-14 12h06.02.271879 +0800
3,square,incong,10,a,4,72,72,0,a,1,1.020645999989938,None,,,,,0,72,72,118,132.97783220000565,,,,,,,,132.9724569999962,133.47377650003182,134.50225330004469,,,,,,,,,,a,1,1.020645999989938,None,,,,,,p002,2026-04-14_12h06.01.961,Flanker Compatibility Task,,2026.1.1,119.95815858291446,2026-04-14 12h06.02.271879 +0800
2,diamond,cong,-10,l,3,73,73,0,l,1,0.5493523999466561,None,,,,,0,73,73,75,134.51038600003812,,,,,,,,134.5034788000048,134.9971094999928,135.55233249999583,,,,,,,,,,l,1,0.5493523999466561,None,,,,,,p002,2026-04-14_12h06.01.961,Flanker Compatibility Task,,2026.1.1,119.95815858291446,2026-04-14 12h06.02.271879 +0800
3,diamond,cong,10,l,2,74,74,0,l,1,0.9267948999768123,None,,,,,0,74,74,128,135.55996770004276,,,,,,,,135.55362870002864,136.05312779999804,136.98507699999027,,,,,,,,,,l,1,0.9267948999768123,None,,,,,,p002,2026-04-14_12h06.01.961,Flanker Compatibility Task,,2026.1.1,119.95815858291446,2026-04-14 12h06.02.271879 +0800
3,diamond,cong,-10,l,3,75,75,0,l,1,0.8518575000343844,None,,,,,0,75,75,123,136.9936077000457,,,,,,,,136.9867268,137.48354899999686,138.3363173000398,,,,,,,,,,l,1,0.8518575000343844,None,,,,,,p002,2026-04-14_12h06.01.961,Flanker Compatibility Task,,2026.1.1,119.95815858291446,2026-04-14 12h06.02.271879 +0800
3,diamond,incong,10,l,3,76,76,0,l,1,0.8810009000007994,None,,,,,0,76,76,141,138.3429931999999,,,,,,,,138.3377768000355,138.8374759000144,139.72608089999994,,,,,,,,,,l,1,0.8810009000007994,None,,,,,,p002,2026-04-14_12h06.01.961,Flanker Compatibility Task,,2026.1.1,119.95815858291446,2026-04-14 12h06.02.271879 +0800
4,diamond,cong,10,l,3,77,77,0,l,1,0.8954007999855094,None,,,,,0,77,77,177,139.73441130004358,,,,,,,,139.72750750003615,140.22218570002588,141.12543730001198,,,,,,,,,,l,1,0.8954007999855094,None,,,,,,p002,2026-04-14_12h06.01.961,Flanker Compatibility Task,,2026.1.1,119.95815858291446,2026-04-14 12h06.02.271879 +0800
4,diamond,cong,10,l,1,78,78,0,l,1,0.6814478999585845,None,,,,,0,78,78,175,141.13318750000326,,,,,,,,141.12698719999753,141.6224671000382,142.30867510003736,,,,,,,,,,l,1,0.6814478999585845,None,,,,,,p002,2026-04-14_12h06.01.961,Flanker Compatibility Task,,2026.1.1,119.95815858291446,2026-04-14 12h06.02.271879 +0800
2,square,cong,-10,a,5,79,79,0,a,1,0.6681175000267103,None,,,,,0,79,79,53,142.31677150004543,,,,,,,,142.30959690001328,142.8118985000183,143.48484059999464,,,,,,,,,,a,1,0.6681175000267103,None,,,,,,p002,2026-04-14_12h06.01.961,Flanker Compatibility Task,,2026.1.1,119.95815858291446,2026-04-14 12h06.02.271879 +0800
4,square,cong,-10,a,4,80,80,0,a,1,0.9122192999930121,None,,,,,0,80,80,148,143.49142520001624,,,,,,,,143.48691020003753,143.9866362999892,144.90087630000198,,,,,,,,,,a,1,0.9122192999930121,None,,,,,,p002,2026-04-14_12h06.01.961,Flanker Compatibility Task,,2026.1.1,119.95815858291446,2026-04-14 12h06.02.271879 +0800
4,square,incong,10,a,5,81,81,0,a,1,0.7645111000165343,None,,,,,0,81,81,167,144.9076086000423,,,,,,,,144.90309909998905,145.40438040002482,146.17466469999636,,,,,,,,,,a,1,0.7645111000165343,None,,,,,,p002,2026-04-14_12h06.01.961,Flanker Compatibility Task,,2026.1.1,119.95815858291446,2026-04-14 12h06.02.271879 +0800
4,diamond,cong,-10,l,3,82,82,0,l,1,1.0319907000521198,None,,,,,0,82,82,171,146.18275490001542,,,,,,,,146.17628360004164,146.66931600001408,147.70893429999705,,,,,,,,,,l,1,1.0319907000521198,None,,,,,,p002,2026-04-14_12h06.01.961,Flanker Compatibility Task,,2026.1.1,119.95815858291446,2026-04-14 12h06.02.271879 +0800
4,square,cong,-10,a,5,83,83,0,a,1,0.8082613000296988,None,,,,,0,83,83,149,147.71524440002395,,,,,,,,147.71008590003476,148.2129212000291,149.02465520001715,,,,,,,,,,a,1,0.8082613000296988,None,,,,,,p002,2026-04-14_12h06.01.961,Flanker Compatibility Task,,2026.1.1,119.95815858291446,2026-04-14 12h06.02.271879 +0800
4,square,incong,-10,a,2,84,84,0,a,1,0.8780771999736317,None,,,,,0,84,84,158,149.03128900000593,,,,,,,,149.02616850001505,149.52677810000023,150.40739519998897,,,,,,,,,,a,1,0.8780771999736317,None,,,,,,p002,2026-04-14_12h06.01.961,Flanker Compatibility Task,,2026.1.1,119.95815858291446,2026-04-14 12h06.02.271879 +0800
1,square,incong,-10,a,5,85,85,0,a,1,0.6690996,None,,,,,0,85,85,17,150.41424589999951,,,,,,,,150.40867550001713,150.9075532000279,151.5817699,,,,,,,,,,a,1,0.6690996,None,,,,,,p002,2026-04-14_12h06.01.961,Flanker Compatibility Task,,2026.1.1,119.95815858291446,2026-04-14 12h06.02.271879 +0800
4,square,cong,10,a,4,86,86,0,a,1,1.0934557000291534,None,,,,,0,86,86,154,151.58879569999408,,,,,,,,151.5832175000105,152.07443080004305,153.17355890001636,,,,,,,,,,a,1,1.0934557000291534,None,,,,,,p002,2026-04-14_12h06.01.961,Flanker Compatibility Task,,2026.1.1,119.95815858291446,2026-04-14 12h06.02.271879 +0800
1,diamond,cong,10,l,4,87,87,0,l,1,0.6591977000352927,None,,,,,0,87,87,34,153.18020629999228,,,,,,,,153.1748509000172,153.67349549999926,154.33894490002422,,,,,,,,,,l,1,0.6591977000352927,None,,,,,,p002,2026-04-14_12h06.01.961,Flanker Compatibility Task,,2026.1.1,119.95815858291446,2026-04-14 12h06.02.271879 +0800
1,square,incong,-10,a,4,88,88,0,a,1,0.7269735999871045,None,,,,,0,88,88,16,154.34645820001606,,,,,,,,154.34036989999004,154.8297265000292,155.56499909999548,,,,,,,,,,a,1,0.7269735999871045,None,,,,,,p002,2026-04-14_12h06.01.961,Flanker Compatibility Task,,2026.1.1,119.95815858291446,2026-04-14 12h06.02.271879 +0800
4,square,incong,-10,a,1,89,89,0,a,1,1.1057566000381485,None,,,,,0,89,89,157,155.57362869998906,,,,,,,,155.56656130001647,156.06585549999727,157.18083220004337,,,,,,,,,,a,1,1.1057566000381485,None,,,,,,p002,2026-04-14_12h06.01.961,Flanker Compatibility Task,,2026.1.1,119.95815858291446,2026-04-14 12h06.02.271879 +0800
3,diamond,incong,-10,l,1,90,90,0,l,1,0.6729436999885365,None,,,,,0,90,90,133,157.1879118999932,,,,,,,,157.18223800003761,157.6851179000223,158.36374709999654,,,,,,,,,,l,1,0.6729436999885365,None,,,,,,p002,2026-04-14_12h06.01.961,Flanker Compatibility Task,,2026.1.1,119.95815858291446,2026-04-14 12h06.02.271879 +0800
2,square,incong,-10,a,2,91,91,0,a,1,0.9243577999877743,None,,,,,0,91,91,62,158.37051969999447,,,,,,,,158.36527489998844,158.86787800001912,159.7977458999958,,,,,,,,,,a,1,0.9243577999877743,None,,,,,,p002,2026-04-14_12h06.01.961,Flanker Compatibility Task,,2026.1.1,119.95815858291446,2026-04-14 12h06.02.271879 +0800
3,square,incong,-10,a,5,92,92,0,a,1,0.7910667000105605,None,,,,,0,92,92,113,159.80488240002887,,,,,,,,159.7987958000158,160.30074830004014,161.09581020002952,,,,,,,,,,a,1,0.7910667000105605,None,,,,,,p002,2026-04-14_12h06.01.961,Flanker Compatibility Task,,2026.1.1,119.95815858291446,2026-04-14 12h06.02.271879 +0800
3,diamond,incong,-10,l,0,93,93,0,l,1,0.968153,None,,,,,0,93,93,132,161.1033732999931,,,,,,,,161.0972821000032,161.59239960002014,162.5631638999912,,,,,,,,,,l,1,0.968153,None,,,,,,p002,2026-04-14_12h06.01.961,Flanker Compatibility Task,,2026.1.1,119.95815858291446,2026-04-14 12h06.02.271879 +0800
1,square,incong,10,a,1,94,94,0,a,1,0.6442269000108354,None,,,,,0,94,94,19,162.56960160000017,,,,,,,,162.5645745,163.0671097000013,163.72108750004554,,,,,,,,,,a,1,0.6442269000108354,None,,,,,,p002,2026-04-14_12h06.01.961,Flanker Compatibility Task,,2026.1.1,119.95815858291446,2026-04-14 12h06.02.271879 +0800
3,diamond,cong,-10,l,0,95,95,0,l,1,0.9425521999946795,None,,,,,0,95,95,120,163.7287423000089,,,,,,,,163.72274749999633,164.21717560000252,165.16160610003863,,,,,,,,,,l,1,0.9425521999946795,None,,,,,,p002,2026-04-14_12h06.01.961,Flanker Compatibility Task,,2026.1.1,119.95815858291446,2026-04-14 12h06.02.271879 +0800
4,square,cong,10,a,3,96,96,0,a,1,0.7819628000142984,None,,,,,0,96,96,153,165.16900540003553,,,,,,,,165.16278549999697,165.6637194000068,166.45268280000892,,,,,,,,,,a,1,0.7819628000142984,None,,,,,,p002,2026-04-14_12h06.01.961,Flanker Compatibility Task,,2026.1.1,119.95815858291446,2026-04-14 12h06.02.271879 +0800
1,square,cong,10,a,2,97,97,0,a,1,0.626244,None,,,,,0,97,97,8,166.46013820002554,,,,,,,,166.45370800001547,166.9454600000172,167.5775503999903,,,,,,,,,,a,1,0.626244,None,,,,,,p002,2026-04-14_12h06.01.961,Flanker Compatibility Task,,2026.1.1,119.95815858291446,2026-04-14 12h06.02.271879 +0800
3,square,incong,-10,a,0,98,98,0,a,1,0.6202652999782003,None,,,,,0,98,98,108,167.5879164999933,,,,,,,,167.57901789998868,168.07364150002832,168.70298570004525,,,,,,,,,,a,1,0.6202652999782003,None,,,,,,p002,2026-04-14_12h06.01.961,Flanker Compatibility Task,,2026.1.1,119.95815858291446,2026-04-14 12h06.02.271879 +0800
3,diamond,incong,10,l,2,99,99,0,l,1,1.0930047000292689,None,,,,,0,99,99,140,168.71007190004457,,,,,,,,168.70441569999093,169.1972721000202,170.29355669999495,,,,,,,,,,l,1,1.0930047000292689,None,,,,,,p002,2026-04-14_12h06.01.961,Flanker Compatibility Task,,2026.1.1,119.95815858291446,2026-04-14 12h06.02.271879 +0800
1,diamond,cong,10,l,3,100,100,0,l,1,0.5650776000111364,None,,,,,0,100,100,33,170.30105770000955,,,,,,,,170.2947029999923,170.78816820000065,171.3597600000212,,,,,,,,,,l,1,0.5650776000111364,None,,,,,,p002,2026-04-14_12h06.01.961,Flanker Compatibility Task,,2026.1.1,119.95815858291446,2026-04-14 12h06.02.271879 +0800
4,diamond,incong,10,l,5,101,101,0,l,1,0.7215622999938205,None,,,,,0,101,101,191,171.36804600001778,,,,,,,,171.3608186999918,171.85701510001672,172.58525230002124,,,,,,,,,,l,1,0.7215622999938205,None,,,,,,p002,2026-04-14_12h06.01.961,Flanker Compatibility Task,,2026.1.1,119.95815858291446,2026-04-14 12h06.02.271879 +0800
2,diamond,incong,10,l,5,102,102,0,l,1,0.5697863000095822,None,,,,,0,102,102,95,172.59300480003003,,,,,,,,172.58662590000313,173.08644310000818,173.66087040002458,,,,,,,,,,l,1,0.5697863000095822,None,,,,,,p002,2026-04-14_12h06.01.961,Flanker Compatibility Task,,2026.1.1,119.95815858291446,2026-04-14 12h06.02.271879 +0800
2,square,cong,-10,a,4,103,103,0,a,1,0.5350007999804802,None,,,,,0,103,103,52,173.66722950001713,,,,,,,,173.66236850002315,174.15949480002746,174.70020850002766,,,,,,,,,,a,1,0.5350007999804802,None,,,,,,p002,2026-04-14_12h06.01.961,Flanker Compatibility Task,,2026.1.1,119.95815858291446,2026-04-14 12h06.02.271879 +0800
2,square,cong,10,a,0,104,104,0,a,1,0.6356694999849424,None,,,,,0,104,104,54,174.70800240000244,,,,,,,,174.70116830000188,175.19570179999573,175.83365520002553,,,,,,,,,,a,1,0.6356694999849424,None,,,,,,p002,2026-04-14_12h06.01.961,Flanker Compatibility Task,,2026.1.1,119.95815858291446,2026-04-14 12h06.02.271879 +0800
3,diamond,cong,-10,l,5,105,105,0,l,1,0.7738862999831326,None,,,,,0,105,105,125,175.84122570004547,,,,,,,,175.83497550000902,176.3262437999947,177.10968270001467,,,,,,,,,,l,1,0.7738862999831326,None,,,,,,p002,2026-04-14_12h06.01.961,Flanker Compatibility Task,,2026.1.1,119.95815858291446,2026-04-14 12h06.02.271879 +0800
4,diamond,cong,-10,l,5,106,106,0,l,1,0.7751769000315107,None,,,,,0,106,106,173,177.1167772,,,,,,,,177.11118569999235,177.61221849999856,178.39273369999137,,,,,,,,,,l,1,0.7751769000315107,None,,,,,,p002,2026-04-14_12h06.01.961,Flanker Compatibility Task,,2026.1.1,119.95815858291446,2026-04-14 12h06.02.271879 +0800
3,square,incong,10,a,2,107,107,0,a,1,0.7520813000155613,None,,,,,0,107,107,116,178.39948590000859,,,,,,,,178.39446020004107,178.8956363000325,179.6508676999947,,,,,,,,,,a,1,0.7520813000155613,None,,,,,,p002,2026-04-14_12h06.01.961,Flanker Compatibility Task,,2026.1.1,119.95815858291446,2026-04-14 12h06.02.271879 +0800
3,square,cong,-10,a,1,108,108,0,a,1,0.7069145999848843,None,,,,,0,108,108,97,179.65731969999615,,,,,,,,179.65226470003836,180.15244550001808,180.86570040002698,,,,,,,,,,a,1,0.7069145999848843,None,,,,,,p002,2026-04-14_12h06.01.961,Flanker Compatibility Task,,2026.1.1,119.95815858291446,2026-04-14 12h06.02.271879 +0800
1,diamond,cong,-10,l,2,109,109,0,l,1,0.7445707999868318,None,,,,,0,109,109,26,180.8733731000102,,,,,,,,180.86676540004555,181.3592071000021,182.10824400000274,,,,,,,,,,l,1,0.7445707999868318,None,,,,,,p002,2026-04-14_12h06.01.961,Flanker Compatibility Task,,2026.1.1,119.95815858291446,2026-04-14 12h06.02.271879 +0800
4,diamond,incong,10,l,3,110,110,0,l,1,1.1336092000128701,None,,,,,0,110,110,189,182.1152949000243,,,,,,,,182.11012490000576,182.61141650000354,183.7500691000023,,,,,,,,,,l,1,1.1336092000128701,None,,,,,,p002,2026-04-14_12h06.01.961,Flanker Compatibility Task,,2026.1.1,119.95815858291446,2026-04-14 12h06.02.271879 +0800
2,diamond,incong,-10,l,2,111,111,0,l,1,0.7336841999785975,None,,,,,0,111,111,86,183.75681180000538,,,,,,,,183.75138770003105,184.24757880001562,184.99056460004067,,,,,,,,,,l,1,0.7336841999785975,None,,,,,,p002,2026-04-14_12h06.01.961,Flanker Compatibility Task,,2026.1.1,119.95815858291446,2026-04-14 12h06.02.271879 +0800
3,square,cong,-10,a,4,112,112,0,a,1,0.6822378999786451,None,,,,,0,112,112,100,184.99770669999998,,,,,,,,184.99226910003927,185.49282869999297,186.18161590001546,,,,,,,,,,a,1,0.6822378999786451,None,,,,,,p002,2026-04-14_12h06.01.961,Flanker Compatibility Task,,2026.1.1,119.95815858291446,2026-04-14 12h06.02.271879 +0800
3,square,incong,10,a,3,113,113,0,a,1,0.8338513000053354,None,,,,,0,113,113,117,186.18911400000798,,,,,,,,186.1832499000011,186.67813760001445,187.51531899999827,,,,,,,,,,a,1,0.8338513000053354,None,,,,,,p002,2026-04-14_12h06.01.961,Flanker Compatibility Task,,2026.1.1,119.95815858291446,2026-04-14 12h06.02.271879 +0800
3,square,cong,-10,a,5,114,114,0,a,1,0.8082331000478007,None,,,,,0,114,114,101,187.52159499999834,,,,,,,,187.51706750004087,188.01823310001055,188.83048730000155,,,,,,,,,,a,1,0.8082331000478007,None,,,,,,p002,2026-04-14_12h06.01.961,Flanker Compatibility Task,,2026.1.1,119.95815858291446,2026-04-14 12h06.02.271879 +0800
2,square,incong,-10,a,0,115,115,0,a,1,0.7612481999676675,None,,,,,0,115,115,60,188.83810440002708,,,,,,,,188.83165930001996,189.32625280000502,190.08956660004333,,,,,,,,,,a,1,0.7612481999676675,None,,,,,,p002,2026-04-14_12h06.01.961,Flanker Compatibility Task,,2026.1.1,119.95815858291446,2026-04-14 12h06.02.271879 +0800
2,square,cong,10,a,5,116,116,0,a,1,0.7539583000470884,None,,,,,0,116,116,59,190.0958590999944,,,,,,,,190.09080599999288,190.58469779998995,191.34743150003487,,,,,,,,,,a,1,0.7539583000470884,None,,,,,,p002,2026-04-14_12h06.01.961,Flanker Compatibility Task,,2026.1.1,119.95815858291446,2026-04-14 12h06.02.271879 +0800
3,diamond,cong,-10,l,2,117,117,0,l,1,0.7564942000317387,None,,,,,0,117,117,122,191.35520879999967,,,,,,,,191.34844700002577,191.85120979999192,192.61322190001374,,,,,,,,,,l,1,0.7564942000317387,None,,,,,,p002,2026-04-14_12h06.01.961,Flanker Compatibility Task,,2026.1.1,119.95815858291446,2026-04-14 12h06.02.271879 +0800
3,square,cong,10,a,1,118,118,0,a,1,1.2193761999951676,None,,,,,0,118,118,103,192.6204502999899,,,,,,,,192.6145521000144,193.10867109999526,194.33019710000372,,,,,,,,,,a,1,1.2193761999951676,None,,,,,,p002,2026-04-14_12h06.01.961,Flanker Compatibility Task,,2026.1.1,119.95815858291446,2026-04-14 12h06.02.271879 +0800
3,square,incong,10,a,5,119,119,0,a,1,0.6165838000015356,None,,,,,0,119,119,119,194.33682810002938,,,,,,,,194.33157000003848,194.83344760001637,195.45435360004194,,,,,,,,,,a,1,0.6165838000015356,None,,,,,,p002,2026-04-14_12h06.01.961,Flanker Compatibility Task,,2026.1.1,119.95815858291446,2026-04-14 12h06.02.271879 +0800
2,diamond,cong,-10,l,2,120,120,0,l,1,0.6962106000282802,None,,,,,0,120,120,74,195.46196149999741,,,,,,,,195.4555459000403,195.9556145000388,196.65353360003792,,,,,,,,,,l,1,0.6962106000282802,None,,,,,,p002,2026-04-14_12h06.01.961,Flanker Compatibility Task,,2026.1.1,119.95815858291446,2026-04-14 12h06.02.271879 +0800
2,square,cong,10,a,2,121,121,0,a,1,0.7777466999832541,None,,,,,0,121,121,56,196.66126150003402,,,,,,,,196.65472370001953,197.1588357000146,197.94460600003367,,,,,,,,,,a,1,0.7777466999832541,None,,,,,,p002,2026-04-14_12h06.01.961,Flanker Compatibility Task,,2026.1.1,119.95815858291446,2026-04-14 12h06.02.271879 +0800
3,square,cong,10,a,0,122,122,0,a,1,0.9195571999880485,None,,,,,0,122,122,102,197.9535726000322,,,,,,,,197.9459288000362,198.4406285,199.36291220004205,,,,,,,,,,a,1,0.9195571999880485,None,,,,,,p002,2026-04-14_12h06.01.961,Flanker Compatibility Task,,2026.1.1,119.95815858291446,2026-04-14 12h06.02.271879 +0800
3,square,cong,10,a,3,123,123,0,a,1,0.6806265,None,,,,,0,123,123,105,199.36930200003553,,,,,,,,199.3644093,199.8657293000142,200.55250510002952,,,,,,,,,,a,1,0.6806265,None,,,,,,p002,2026-04-14_12h06.01.961,Flanker Compatibility Task,,2026.1.1,119.95815858291446,2026-04-14 12h06.02.271879 +0800
1,square,cong,-10,a,1,124,124,0,a,1,0.6370676999795251,None,,,,,0,124,124,1,200.56042570003774,,,,,,,,200.55381710000802,201.04927920002956,201.6939599000034,,,,,,,,,,a,1,0.6370676999795251,None,,,,,,p002,2026-04-14_12h06.01.961,Flanker Compatibility Task,,2026.1.1,119.95815858291446,2026-04-14 12h06.02.271879 +0800
1,square,cong,-10,a,3,125,125,0,a,1,0.5767305000335909,None,,,,,0,125,125,3,201.7023206000449,,,,,,,,201.69488240004284,202.18981340003666,202.76968970004236,,,,,,,,,,a,1,0.5767305000335909,None,,,,,,p002,2026-04-14_12h06.01.961,Flanker Compatibility Task,,2026.1.1,119.95815858291446,2026-04-14 12h06.02.271879 +0800
1,diamond,cong,10,l,1,126,126,0,l,1,0.6291398999746889,None,,,,,0,126,126,31,202.7771425000392,,,,,,,,202.77092179999454,203.27354449999984,203.91074660001323,,,,,,,,,,l,1,0.6291398999746889,None,,,,,,p002,2026-04-14_12h06.01.961,Flanker Compatibility Task,,2026.1.1,119.95815858291446,2026-04-14 12h06.02.271879 +0800
2,square,cong,10,a,4,127,127,0,l,0,0.6912679000524804,None,,,,,0,127,127,58,203.91775309998775,,,,,,,,203.9120746999979,204.41243660001783,205.1111030000029,,,,,,,,,,l,0,0.6912679000524804,None,,,,,,p002,2026-04-14_12h06.01.961,Flanker Compatibility Task,,2026.1.1,119.95815858291446,2026-04-14 12h06.02.271879 +0800
4,diamond,incong,-10,l,0,128,128,0,l,1,1.3941700999857858,None,,,,,0,128,128,180,205.11749350000173,,,,,,,,205.11247370002093,205.61315849999664,207.01031889999285,,,,,,,,,,l,1,1.3941700999857858,None,,,,,,p002,2026-04-14_12h06.01.961,Flanker Compatibility Task,,2026.1.1,119.95815858291446,2026-04-14 12h06.02.271879 +0800
3,square,incong,-10,a,1,129,129,0,a,1,0.6781277999980375,None,,,,,0,129,129,109,207.01693199999863,,,,,,,,207.01174170000013,207.50604700000258,208.19332690001465,,,,,,,,,,a,1,0.6781277999980375,None,,,,,,p002,2026-04-14_12h06.01.961,Flanker Compatibility Task,,2026.1.1,119.95815858291446,2026-04-14 12h06.02.271879 +0800
3,square,incong,10,a,0,130,130,0,a,1,0.8559736000024714,None,,,,,0,130,130,114,208.2030553999939,,,,,,,,208.1951357999933,208.69681610004045,209.55898870003875,,,,,,,,,,a,1,0.8559736000024714,None,,,,,,p002,2026-04-14_12h06.01.961,Flanker Compatibility Task,,2026.1.1,119.95815858291446,2026-04-14 12h06.02.271879 +0800
3,diamond,incong,-10,l,4,131,131,0,l,1,1.0570704999845475,None,,,,,0,131,131,136,209.5664844,,,,,,,,209.5607166000409,210.05539870000212,211.11823840002762,,,,,,,,,,l,1,1.0570704999845475,None,,,,,,p002,2026-04-14_12h06.01.961,Flanker Compatibility Task,,2026.1.1,119.95815858291446,2026-04-14 12h06.02.271879 +0800
1,diamond,incong,-10,l,1,132,132,0,l,1,0.5862164000282064,None,,,,,0,132,132,37,211.12516960001085,,,,,,,,211.11991559999296,211.6204446000047,212.2080028000055,,,,,,,,,,l,1,0.5862164000282064,None,,,,,,p002,2026-04-14_12h06.01.961,Flanker Compatibility Task,,2026.1.1,119.95815858291446,2026-04-14 12h06.02.271879 +0800
1,square,incong,10,a,3,133,133,0,a,1,0.6809276000130922,None,,,,,0,133,133,21,212.2156593,,,,,,,,212.2092677000328,212.70336139999563,213.3918977000285,,,,,,,,,,a,1,0.6809276000130922,None,,,,,,p002,2026-04-14_12h06.01.961,Flanker Compatibility Task,,2026.1.1,119.95815858291446,2026-04-14 12h06.02.271879 +0800
2,square,incong,10,a,1,134,134,0,a,1,0.7841054999735206,None,,,,,0,134,134,67,213.39922520000255,,,,,,,,213.39335760002723,213.8946595999878,214.68343740003183,,,,,,,,,,a,1,0.7841054999735206,None,,,,,,p002,2026-04-14_12h06.01.961,Flanker Compatibility Task,,2026.1.1,119.95815858291446,2026-04-14 12h06.02.271879 +0800
1,diamond,cong,10,l,2,135,135,0,l,1,0.6051533000427298,None,,,,,0,135,135,32,214.6904451000155,,,,,,,,214.6847953000106,215.18710810004268,215.79976429999806,,,,,,,,,,l,1,0.6051533000427298,None,,,,,,p002,2026-04-14_12h06.01.961,Flanker Compatibility Task,,2026.1.1,119.95815858291446,2026-04-14 12h06.02.271879 +0800
1,square,incong,10,a,4,136,136,0,a,1,0.5902031000005081,None,,,,,0,136,136,22,215.80713470000774,,,,,,,,215.8011272000149,216.30311229999643,216.89926430000924,,,,,,,,,,a,1,0.5902031000005081,None,,,,,,p002,2026-04-14_12h06.01.961,Flanker Compatibility Task,,2026.1.1,119.95815858291446,2026-04-14 12h06.02.271879 +0800
2,square,incong,-10,a,3,137,137,0,a,1,0.8324753000051714,None,,,,,0,137,137,63,216.9069589000428,,,,,,,,216.90049170004204,217.39549800002715,218.23329360003117,,,,,,,,,,a,1,0.8324753000051714,None,,,,,,p002,2026-04-14_12h06.01.961,Flanker Compatibility Task,,2026.1.1,119.95815858291446,2026-04-14 12h06.02.271879 +0800
4,square,cong,10,a,1,138,138,0,a,1,0.8360832000034861,None,,,,,0,138,138,151,218.24019159999443,,,,,,,,218.23445180000272,218.7365354000358,219.57478480000282,,,,,,,,,,a,1,0.8360832000034861,None,,,,,,p002,2026-04-14_12h06.01.961,Flanker Compatibility Task,,2026.1.1,119.95815858291446,2026-04-14 12h06.02.271879 +0800
4,diamond,incong,10,l,0,139,139,0,l,1,1.2154560000053607,None,,,,,0,139,139,186,219.5813446000102,,,,,,,,219.57631840003887,220.07750850002049,221.2983169000363,,,,,,,,,,l,1,1.2154560000053607,None,,,,,,p002,2026-04-14_12h06.01.961,Flanker Compatibility Task,,2026.1.1,119.95815858291446,2026-04-14 12h06.02.271879 +0800
1,square,incong,10,a,2,140,140,0,a,1,0.6607878999784589,None,,,,,0,140,140,20,221.30598649999592,,,,,,,,221.2997577,221.79371550003998,222.46373340004357,,,,,,,,,,a,1,0.6607878999784589,None,,,,,,p002,2026-04-14_12h06.01.961,Flanker Compatibility Task,,2026.1.1,119.95815858291446,2026-04-14 12h06.02.271879 +0800
1,diamond,cong,-10,l,4,141,141,0,l,1,0.8141827000072226,None,,,,,0,141,141,28,222.47120259999065,,,,,,,,222.46474369999487,222.96008980000624,223.78155820001848,,,,,,,,,,l,1,0.8141827000072226,None,,,,,,p002,2026-04-14_12h06.01.961,Flanker Compatibility Task,,2026.1.1,119.95815858291446,2026-04-14 12h06.02.271879 +0800
2,diamond,incong,10,l,0,142,142,0,l,1,1.0118734000134282,None,,,,,0,142,142,90,223.78878060000716,,,,,,,,223.78275650000433,224.28490120003698,225.29811160004465,,,,,,,,,,l,1,1.0118734000134282,None,,,,,,p002,2026-04-14_12h06.01.961,Flanker Compatibility Task,,2026.1.1,119.95815858291446,2026-04-14 12h06.02.271879 +0800
4,square,cong,-10,a,2,143,143,0,a,1,0.8392967,None,,,,,0,143,143,146,225.30526300001657,,,,,,,,225.29934990004404,225.80163669999456,226.6476748000132,,,,,,,,,,a,1,0.8392967,None,,,,,,p002,2026-04-14_12h06.01.961,Flanker Compatibility Task,,2026.1.1,119.95815858291446,2026-04-14 12h06.02.271879 +0800
1,diamond,incong,-10,l,5,144,144,0,l,1,0.9009608,None,,,,,0,144,144,41,226.6547206999967,,,,,,,,226.64895480003906,227.14880070002982,228.05427960003726,,,,,,,,,,l,1,0.9009608,None,,,,,,p002,2026-04-14_12h06.01.961,Flanker Compatibility Task,,2026.1.1,119.95815858291446,2026-04-14 12h06.02.271879 +0800
3,diamond,incong,10,l,4,145,145,0,l,1,0.9120212999987416,None,,,,,0,145,145,142,228.06155879999278,,,,,,,,228.05528610001784,228.54636360000586,229.46221180004068,,,,,,,,,,l,1,0.9120212999987416,None,,,,,,p002,2026-04-14_12h06.01.961,Flanker Compatibility Task,,2026.1.1,119.95815858291446,2026-04-14 12h06.02.271879 +0800
3,diamond,incong,-10,l,5,146,146,0,l,1,1.2197639999794774,None,,,,,0,146,146,137,229.46976300003007,,,,,,,,229.4635905000032,229.95953940000618,231.18652310001198,,,,,,,,,,l,1,1.2197639999794774,None,,,,,,p002,2026-04-14_12h06.01.961,Flanker Compatibility Task,,2026.1.1,119.95815858291446,2026-04-14 12h06.02.271879 +0800
1,diamond,cong,-10,l,3,147,147,0,l,1,0.6937575999763794,None,,,,,0,147,147,27,231.19482890004292,,,,,,,,231.18772390001686,231.6811685,232.3792532000225,,,,,,,,,,l,1,0.6937575999763794,None,,,,,,p002,2026-04-14_12h06.01.961,Flanker Compatibility Task,,2026.1.1,119.95815858291446,2026-04-14 12h06.02.271879 +0800
1,diamond,cong,10,l,5,148,148,0,l,1,0.6100934999994934,None,,,,,0,148,148,35,232.38625169999432,,,,,,,,232.38059400004568,232.88170510000782,233.49618240003474,,,,,,,,,,l,1,0.6100934999994934,None,,,,,,p002,2026-04-14_12h06.01.961,Flanker Compatibility Task,,2026.1.1,119.95815858291446,2026-04-14 12h06.02.271879 +0800
2,diamond,cong,-10,l,1,149,149,0,l,1,0.7915530000464059,None,,,,,0,149,149,73,233.50322160002543,,,,,,,,233.49754760001088,233.9982478999882,234.79397460003383,,,,,,,,,,l,1,0.7915530000464059,None,,,,,,p002,2026-04-14_12h06.01.961,Flanker Compatibility Task,,2026.1.1,119.95815858291446,2026-04-14 12h06.02.271879 +0800
4,diamond,incong,-10,l,1,150,150,0,l,1,0.7033851000014693,None,,,,,0,150,150,181,234.80166679999093,,,,,,,,234.79501980001805,235.30101400002604,236.01187950000167,,,,,,,,,,l,1,0.7033851000014693,None,,,,,,p002,2026-04-14_12h06.01.961,Flanker Compatibility Task,,2026.1.1,119.95815858291446,2026-04-14 12h06.02.271879 +0800
4,square,incong,10,a,2,151,151,0,a,1,0.8098509999690577,None,,,,,0,151,151,164,236.01957559998846,,,,,,,,236.01334030000726,236.5112171000219,237.3276694000233,,,,,,,,,,a,1,0.8098509999690577,None,,,,,,p002,2026-04-14_12h06.01.961,Flanker Compatibility Task,,2026.1.1,119.95815858291446,2026-04-14 12h06.02.271879 +0800
1,diamond,incong,10,l,0,152,152,0,l,1,0.7352853000047617,None,,,,,0,152,152,42,237.33584600000177,,,,,,,,237.3288251,237.8287130999961,238.56818820000626,,,,,,,,,,l,1,0.7352853000047617,None,,,,,,p002,2026-04-14_12h06.01.961,Flanker Compatibility Task,,2026.1.1,119.95815858291446,2026-04-14 12h06.02.271879 +0800
1,square,incong,10,a,0,153,153,0,a,1,0.8469331000233069,None,,,,,0,153,153,18,238.57564749999437,,,,,,,,238.56921879999572,239.06156950001605,239.91023810004117,,,,,,,,,,a,1,0.8469331000233069,None,,,,,,p002,2026-04-14_12h06.01.961,Flanker Compatibility Task,,2026.1.1,119.95815858291446,2026-04-14 12h06.02.271879 +0800
2,diamond,cong,10,l,0,154,154,0,l,1,0.6342264999984764,None,,,,,0,154,154,78,239.9171486000414,,,,,,,,239.91161120001925,240.4111218,241.0514855000074,,,,,,,,,,l,1,0.6342264999984764,None,,,,,,p002,2026-04-14_12h06.01.961,Flanker Compatibility Task,,2026.1.1,119.95815858291446,2026-04-14 12h06.02.271879 +0800
2,diamond,cong,10,l,3,155,155,0,l,1,0.8415506999590434,None,,,,,0,155,155,81,241.0591906000045,,,,,,,,241.0531103000394,241.54610989999492,242.39297000004444,,,,,,,,,,l,1,0.8415506999590434,None,,,,,,p002,2026-04-14_12h06.01.961,Flanker Compatibility Task,,2026.1.1,119.95815858291446,2026-04-14 12h06.02.271879 +0800
4,square,cong,-10,a,3,156,156,0,a,1,0.8611151000368409,None,,,,,0,156,156,147,242.4008770000073,,,,,,,,242.3944305999903,242.88808160001645,243.74997140001506,,,,,,,,,,a,1,0.8611151000368409,None,,,,,,p002,2026-04-14_12h06.01.961,Flanker Compatibility Task,,2026.1.1,119.95815858291446,2026-04-14 12h06.02.271879 +0800
2,square,incong,10,a,4,157,157,0,a,1,0.6191661000484601,None,,,,,0,157,157,70,243.7580472000409,,,,,,,,243.75135430000955,244.24702990002697,244.86767970002256,,,,,,,,,,a,1,0.6191661000484601,None,,,,,,p002,2026-04-14_12h06.01.961,Flanker Compatibility Task,,2026.1.1,119.95815858291446,2026-04-14 12h06.02.271879 +0800
2,diamond,incong,-10,l,1,158,158,0,l,1,0.9372627999982797,None,,,,,0,158,158,85,244.8742934000329,,,,,,,,244.86896220000926,245.36291240004357,246.3011409000028,,,,,,,,,,l,1,0.9372627999982797,None,,,,,,p002,2026-04-14_12h06.01.961,Flanker Compatibility Task,,2026.1.1,119.95815858291446,2026-04-14 12h06.02.271879 +0800
4,square,incong,10,a,0,159,159,0,a,1,0.8665704000159167,None,,,,,0,159,159,162,246.30904180003563,,,,,,,,246.30267300002743,246.8049381999881,247.6740839999984,,,,,,,,,,a,1,0.8665704000159167,None,,,,,,p002,2026-04-14_12h06.01.961,Flanker Compatibility Task,,2026.1.1,119.95815858291446,2026-04-14 12h06.02.271879 +0800
3,square,cong,10,a,5,160,160,0,a,1,0.7407283000065945,None,,,,,0,160,160,107,247.68157840002095,,,,,,,,247.67538010003045,248.16844189999392,248.91612940002233,,,,,,,,,,a,1,0.7407283000065945,None,,,,,,p002,2026-04-14_12h06.01.961,Flanker Compatibility Task,,2026.1.1,119.95815858291446,2026-04-14 12h06.02.271879 +0800
4,square,incong,-10,a,3,161,161,0,a,1,0.9010897,None,,,,,0,161,161,159,248.92390640004305,,,,,,,,248.91754819999915,249.41686860000482,250.32399710000027,,,,,,,,,,a,1,0.9010897,None,,,,,,p002,2026-04-14_12h06.01.961,Flanker Compatibility Task,,2026.1.1,119.95815858291446,2026-04-14 12h06.02.271879 +0800
1,square,cong,-10,a,0,162,162,0,a,1,0.6001172999967821,None,,,,,0,162,162,0,250.33172980003292,,,,,,,,250.32525350002106,250.82118420000188,251.4234364000149,,,,,,,,,,a,1,0.6001172999967821,None,,,,,,p002,2026-04-14_12h06.01.961,Flanker Compatibility Task,,2026.1.1,119.95815858291446,2026-04-14 12h06.02.271879 +0800
4,diamond,cong,10,l,2,163,163,0,l,1,1.2514640999725088,None,,,,,0,163,163,176,251.43132520001382,,,,,,,,251.42462569999043,251.9184526000172,253.1739910999895,,,,,,,,,,l,1,1.2514640999725088,None,,,,,,p002,2026-04-14_12h06.01.961,Flanker Compatibility Task,,2026.1.1,119.95815858291446,2026-04-14 12h06.02.271879 +0800
2,square,incong,10,a,3,164,164,0,a,1,0.7853384999907576,None,,,,,0,164,164,69,253.1803201000439,,,,,,,,253.17533560004085,253.67001990001881,254.45704460004345,,,,,,,,,,a,1,0.7853384999907576,None,,,,,,p002,2026-04-14_12h06.01.961,Flanker Compatibility Task,,2026.1.1,119.95815858291446,2026-04-14 12h06.02.271879 +0800
2,diamond,incong,-10,l,4,165,165,0,l,1,1.029711299983319,None,,,,,0,165,165,88,254.46346020000055,,,,,,,,254.45857570000226,254.95065890002297,255.98121890000766,,,,,,,,,,l,1,1.029711299983319,None,,,,,,p002,2026-04-14_12h06.01.961,Flanker Compatibility Task,,2026.1.1,119.95815858291446,2026-04-14 12h06.02.271879 +0800
4,square,cong,-10,a,1,166,166,0,a,1,0.8449362000101246,None,,,,,0,166,166,145,255.98801200004527,,,,,,,,255.98298870003782,256.4776678000344,257.33032820001245,,,,,,,,,,a,1,0.8449362000101246,None,,,,,,p002,2026-04-14_12h06.01.961,Flanker Compatibility Task,,2026.1.1,119.95815858291446,2026-04-14 12h06.02.271879 +0800
4,diamond,cong,-10,l,0,167,167,0,l,1,0.8804535999661312,None,,,,,0,167,167,168,257.3390697000432,,,,,,,,257.33202780003194,257.8258148999885,258.7130968000274,,,,,,,,,,l,1,0.8804535999661312,None,,,,,,p002,2026-04-14_12h06.01.961,Flanker Compatibility Task,,2026.1.1,119.95815858291446,2026-04-14 12h06.02.271879 +0800
1,diamond,incong,-10,l,0,168,168,0,l,1,0.48235100001329556,None,,,,,0,168,168,36,258.72074260003865,,,,,,,,258.71397610002896,259.20769350003684,259.69661660003476,,,,,,,,,,l,1,0.48235100001329556,None,,,,,,p002,2026-04-14_12h06.01.961,Flanker Compatibility Task,,2026.1.1,119.95815858291446,2026-04-14 12h06.02.271879 +0800
4,square,incong,-10,a,4,169,169,0,a,1,1.0145802000188269,None,,,,,0,169,169,160,259.7041366000194,,,,,,,,259.69821060000686,260.19856480002636,261.21406930004014,,,,,,,,,,a,1,1.0145802000188269,None,,,,,,p002,2026-04-14_12h06.01.961,Flanker Compatibility Task,,2026.1.1,119.95815858291446,2026-04-14 12h06.02.271879 +0800
3,square,cong,10,a,4,170,170,0,a,1,0.8912826,None,,,,,0,170,170,106,261.22151619999204,,,,,,,,261.21550029999344,261.7149896000046,262.6123649000074,,,,,,,,,,a,1,0.8912826,None,,,,,,p002,2026-04-14_12h06.01.961,Flanker Compatibility Task,,2026.1.1,119.95815858291446,2026-04-14 12h06.02.271879 +0800
1,square,cong,-10,a,5,171,171,0,a,1,0.6867697999696247,None,,,,,0,171,171,5,262.62055290001445,,,,,,,,262.6134688000311,263.10576820001006,263.7948768000351,,,,,,,,,,a,1,0.6867697999696247,None,,,,,,p002,2026-04-14_12h06.01.961,Flanker Compatibility Task,,2026.1.1,119.95815858291446,2026-04-14 12h06.02.271879 +0800
4,square,cong,-10,a,0,172,172,0,a,1,0.8975792,None,,,,,0,172,172,144,263.80294560000766,,,,,,,,263.7964129,264.2903328000102,265.1950677999994,,,,,,,,,,a,1,0.8975792,None,,,,,,p002,2026-04-14_12h06.01.961,Flanker Compatibility Task,,2026.1.1,119.95815858291446,2026-04-14 12h06.02.271879 +0800
3,diamond,incong,10,l,1,173,173,0,l,1,1.068774699990172,None,,,,,0,173,173,139,265.2030153000378,,,,,,,,265.1966069000191,265.69058570003835,266.7618817000184,,,,,,,,,,l,1,1.068774699990172,None,,,,,,p002,2026-04-14_12h06.01.961,Flanker Compatibility Task,,2026.1.1,119.95815858291446,2026-04-14 12h06.02.271879 +0800
3,diamond,incong,-10,l,3,174,174,0,l,1,0.8992035999544896,None,,,,,0,174,174,135,266.7687070000102,,,,,,,,266.7633744000341,267.2581144000287,268.1620142000029,,,,,,,,,,l,1,0.8992035999544896,None,,,,,,p002,2026-04-14_12h06.01.961,Flanker Compatibility Task,,2026.1.1,119.95815858291446,2026-04-14 12h06.02.271879 +0800
1,square,cong,10,a,1,175,175,0,a,1,0.7741142000304535,None,,,,,0,175,175,7,268.1686938999919,,,,,,,,268.1632881000405,268.6622004000237,269.44400270003825,,,,,,,,,,a,1,0.7741142000304535,None,,,,,,p002,2026-04-14_12h06.01.961,Flanker Compatibility Task,,2026.1.1,119.95815858291446,2026-04-14 12h06.02.271879 +0800
2,square,incong,10,a,5,176,176,0,a,1,0.7918465999537148,None,,,,,0,176,176,71,269.45211449998897,,,,,,,,269.44540500000585,269.9458555000019,270.7440328,,,,,,,,,,a,1,0.7918465999537148,None,,,,,,p002,2026-04-14_12h06.01.961,Flanker Compatibility Task,,2026.1.1,119.95815858291446,2026-04-14 12h06.02.271879 +0800
1,square,incong,-10,a,1,177,177,0,a,1,0.6751239000004716,None,,,,,0,177,177,13,270.75104589998955,,,,,,,,270.74530110001797,271.2486591000343,271.92635080002947,,,,,,,,,,a,1,0.6751239000004716,None,,,,,,p002,2026-04-14_12h06.01.961,Flanker Compatibility Task,,2026.1.1,119.95815858291446,2026-04-14 12h06.02.271879 +0800
1,diamond,incong,10,l,2,178,178,0,l,1,0.6436057999962941,None,,,,,0,178,178,44,271.9344273000024,,,,,,,,271.92724759998964,272.42008350003744,273.0694571000058,,,,,,,,,,l,1,0.6436057999962941,None,,,,,,p002,2026-04-14_12h06.01.961,Flanker Compatibility Task,,2026.1.1,119.95815858291446,2026-04-14 12h06.02.271879 +0800
4,square,cong,10,a,0,179,179,0,a,1,0.8123594999779016,None,,,,,0,179,179,150,273.07593450002605,,,,,,,,273.07097860000795,273.5691946000443,274.3858833000413,,,,,,,,,,a,1,0.8123594999779016,None,,,,,,p002,2026-04-14_12h06.01.961,Flanker Compatibility Task,,2026.1.1,119.95815858291446,2026-04-14 12h06.02.271879 +0800
1,diamond,incong,10,l,3,180,180,0,l,1,0.5859582,None,,,,,0,180,180,45,274.39199740003096,,,,,,,,274.38719680003123,274.88777480000863,275.4766124000307,,,,,,,,,,l,1,0.5859582,None,,,,,,p002,2026-04-14_12h06.01.961,Flanker Compatibility Task,,2026.1.1,119.95815858291446,2026-04-14 12h06.02.271879 +0800
2,square,incong,10,a,2,181,181,0,a,1,0.8730314999702387,None,,,,,0,181,181,68,275.48320260003675,,,,,,,,275.4787107000011,275.9797184999916,276.8589539999957,,,,,,,,,,a,1,0.8730314999702387,None,,,,,,p002,2026-04-14_12h06.01.961,Flanker Compatibility Task,,2026.1.1,119.95815858291446,2026-04-14 12h06.02.271879 +0800
2,diamond,incong,-10,l,0,182,182,0,l,1,0.5534181999973953,None,,,,,0,182,182,84,276.86651050002547,,,,,,,,276.859877,277.3522610000218,277.9095027000294,,,,,,,,,,l,1,0.5534181999973953,None,,,,,,p002,2026-04-14_12h06.01.961,Flanker Compatibility Task,,2026.1.1,119.95815858291446,2026-04-14 12h06.02.271879 +0800
1,square,incong,-10,a,3,183,183,0,a,1,0.7262328,None,,,,,0,183,183,15,277.91784080001526,,,,,,,,277.91106429998763,278.40991029998986,279.14183830004185,,,,,,,,,,a,1,0.7262328,None,,,,,,p002,2026-04-14_12h06.01.961,Flanker Compatibility Task,,2026.1.1,119.95815858291446,2026-04-14 12h06.02.271879 +0800
3,diamond,incong,-10,l,2,184,184,0,l,1,1.087177100009285,None,,,,,0,184,184,134,279.1493880000198,,,,,,,,279.1429255999974,279.6382439000299,280.73292470001616,,,,,,,,,,l,1,1.087177100009285,None,,,,,,p002,2026-04-14_12h06.01.961,Flanker Compatibility Task,,2026.1.1,119.95815858291446,2026-04-14 12h06.02.271879 +0800
2,diamond,incong,10,l,4,185,185,0,l,1,0.7840364000294358,None,,,,,0,185,185,94,280.74088490003487,,,,,,,,280.7338423000183,281.2274209,282.0162576000439,,,,,,,,,,l,1,0.7840364000294358,None,,,,,,p002,2026-04-14_12h06.01.961,Flanker Compatibility Task,,2026.1.1,119.95815858291446,2026-04-14 12h06.02.271879 +0800
3,square,incong,-10,a,2,186,186,0,l,0,0.9587696999660693,None,,,,,0,186,186,110,282.0243650000193,,,,,,,,282.0176337000448,282.5121841999935,283.4740037000156,,,,,,,,,,l,0,0.9587696999660693,None,,,,,,p002,2026-04-14_12h06.01.961,Flanker Compatibility Task,,2026.1.1,119.95815858291446,2026-04-14 12h06.02.271879 +0800
2,square,cong,-10,a,2,187,187,0,a,1,0.6706803999841213,None,,,,,0,187,187,50,283.481913,,,,,,,,283.47515439998824,283.96995450003305,284.64874710002914,,,,,,,,,,a,1,0.6706803999841213,None,,,,,,p002,2026-04-14_12h06.01.961,Flanker Compatibility Task,,2026.1.1,119.95815858291446,2026-04-14 12h06.02.271879 +0800
4,diamond,incong,10,l,1,188,188,0,l,1,0.9224931999924593,None,,,,,0,188,188,187,284.6565957,,,,,,,,284.65061140002217,285.1519769000006,286.0823831000016,,,,,,,,,,l,1,0.9224931999924593,None,,,,,,p002,2026-04-14_12h06.01.961,Flanker Compatibility Task,,2026.1.1,119.95815858291446,2026-04-14 12h06.02.271879 +0800
2,diamond,cong,-10,l,0,189,189,0,a,0,0.856993,None,,,,,0,189,189,72,286.08939340000506,,,,,,,,286.0842747000279,286.58415579999564,287.4488585999934,,,,,,,,,,a,0,0.856993,None,,,,,,p002,2026-04-14_12h06.01.961,Flanker Compatibility Task,,2026.1.1,119.95815858291446,2026-04-14 12h06.02.271879 +0800
4,square,incong,10,a,1,190,190,0,a,1,1.0551332999602892,None,,,,,0,190,190,163,287.45633200003067,,,,,,,,287.45093500002986,287.9517426000093,289.0143146000337,,,,,,,,,,a,1,1.0551332999602892,None,,,,,,p002,2026-04-14_12h06.01.961,Flanker Compatibility Task,,2026.1.1,119.95815858291446,2026-04-14 12h06.02.271879 +0800
1,diamond,cong,-10,l,1,191,191,0,l,1,0.6174098000046797,None,,,,,0,191,191,25,289.0219531999901,,,,,,,,289.0154398,289.51084569998784,290.1312715,,,,,,,,,,l,1,0.6174098000046797,None,,,,,,p002,2026-04-14_12h06.01.961,Flanker Compatibility Task,,2026.1.1,119.95815858291446,2026-04-14 12h06.02.271879 +0800
,,,,,,,,,,,,,,,,,,,,,,,,,,,,,,,,,,,,,,,,,,,,,290.1316257000435,292.0550857000053,space,1.909294700017199,None,p002,2026-04-14_12h06.01.961,Flanker Compatibility Task,,2026.1.1,119.95815858291446,2026-04-14 12h06.02.271879 +0800
