difficulty,target_type,condition,dist_pos_x,ans,target_idx,thisN,thisTrialN,thisRepN,Anskey.keys,Anskey.corr,Anskey.rt,Anskey.duration,Prac_Loop.thisRepN,Prac_Loop.thisTrialN,Prac_Loop.thisN,Prac_Loop.thisIndex,Trials_Loop.thisRepN,Trials_Loop.thisTrialN,Trials_Loop.thisN,Trials_Loop.thisIndex,thisRow.t,notes,piloting,Intro.started,Intro.stopped,Intro_keyresp.keys,Intro_keyresp.rt,Intro_keyresp.duration,Trial_Routine.started,Anskey.started,Trial_Routine.stopped,Prac_Loop.Anskey.keys,Prac_Loop.Anskey.corr,Prac_Loop.Anskey.rt,Prac_Loop.Anskey.duration,Ready.started,Ready.stopped,Ready_keyresp.keys,Ready_keyresp.rt,Ready_keyresp.duration,Trials_Loop.Anskey.keys,Trials_Loop.Anskey.corr,Trials_Loop.Anskey.rt,Trials_Loop.Anskey.duration,ThankYou.started,ThankYou.stopped,Thanks_keyresp.keys,Thanks_keyresp.rt,Thanks_keyresp.duration,participant,date,expName,expVersion,psychopyVersion,frameRate,expStart
,,,,,,,,,,,,,,,,,,,,,,,FALSE,0.0077386,6.374442400003318,space,5.8705977000063285,None,,,,,,,,,,,,,,,,,,,,,,p003,2026-04-14_12h22.00.699,Flanker Compatibility Task,,2026.1.1,119.16564981454972,2026-04-14 12h22.00.999747 +0800
2,diamond,incong,10,l,0,0,0,0,l,1,2.257061399985105,None,0,0,0,7,,,,,6.399860100005753,,,,,,,,6.390175400010776,6.872043100011069,9.132672799983993,l,1,2.257061399985105,None,,,,,,,,,,,,,,,p003,2026-04-14_12h22.00.699,Flanker Compatibility Task,,2026.1.1,119.16564981454972,2026-04-14 12h22.00.999747 +0800
4,square,cong,10,a,5,1,1,0,a,1,1.2043313999893144,None,0,1,1,12,,,,,9.139765499974601,,,,,,,,9.134198800020386,9.6293441,10.83986210002331,a,1,1.2043313999893144,None,,,,,,,,,,,,,,,p003,2026-04-14_12h22.00.699,Flanker Compatibility Task,,2026.1.1,119.16564981454972,2026-04-14 12h22.00.999747 +0800
2,square,cong,10,a,5,2,2,0,a,1,0.8437978000147268,None,0,2,2,4,,,,,10.848125700023957,,,,,,,,10.841636000026483,11.334078899992164,12.181074699969031,a,1,0.8437978000147268,None,,,,,,,,,,,,,,,p003,2026-04-14_12h22.00.699,Flanker Compatibility Task,,2026.1.1,119.16564981454972,2026-04-14 12h22.00.999747 +0800
1,square,cong,-10,a,1,3,3,0,a,1,0.7857435999903828,None,0,3,3,0,,,,,12.18866290000733,,,,,,,,12.181941099988762,12.676828199997544,13.464000599982683,a,1,0.7857435999903828,None,,,,,,,,,,,,,,,p003,2026-04-14_12h22.00.699,Flanker Compatibility Task,,2026.1.1,119.16564981454972,2026-04-14 12h22.00.999747 +0800
4,diamond,cong,-10,l,4,4,4,0,l,1,2.5567625000257976,None,0,4,4,14,,,,,13.471649800019804,,,,,,,,13.465412200021092,13.959501300007105,16.523135799972806,l,1,2.5567625000257976,None,,,,,,,,,,,,,,,p003,2026-04-14_12h22.00.699,Flanker Compatibility Task,,2026.1.1,119.16564981454972,2026-04-14 12h22.00.999747 +0800
3,square,incong,10,a,5,5,5,0,a,1,1.3343254999490455,None,0,5,5,9,,,,,16.52941550000105,,,,,,,,16.524988399993163,17.025379200000316,18.36340500001097,a,1,1.3343254999490455,None,,,,,,,,,,,,,,,p003,2026-04-14_12h22.00.699,Flanker Compatibility Task,,2026.1.1,119.16564981454972,2026-04-14 12h22.00.999747 +0800
3,diamond,cong,10,l,1,6,6,0,a,0,2.228905300027691,None,0,6,6,10,,,,,18.37108710000757,,,,,,,,18.364746299979743,18.858653699979186,21.08994709997205,a,0,2.228905300027691,None,,,,,,,,,,,,,,,p003,2026-04-14_12h22.00.699,Flanker Compatibility Task,,2026.1.1,119.16564981454972,2026-04-14 12h22.00.999747 +0800
3,diamond,incong,-10,l,4,7,7,0,l,1,1.4381018000422046,None,0,7,7,11,,,,,21.097750600019936,,,,,,,,21.091485199984163,21.592488700000104,23.037805099971592,l,1,1.4381018000422046,None,,,,,,,,,,,,,,,p003,2026-04-14_12h22.00.699,Flanker Compatibility Task,,2026.1.1,119.16564981454972,2026-04-14 12h22.00.999747 +0800
1,diamond,incong,-10,l,5,8,8,0,l,1,0.6494451000471599,None,0,8,8,3,,,,,23.04624649998732,,,,,,,,23.038936499971896,23.53907350002555,24.195593799988274,l,1,0.6494451000471599,None,,,,,,,,,,,,,,,p003,2026-04-14_12h22.00.699,Flanker Compatibility Task,,2026.1.1,119.16564981454972,2026-04-14 12h22.00.999747 +0800
2,square,incong,-10,a,2,9,9,0,a,1,0.7485924000502564,None,0,9,9,5,,,,,24.20334060001187,,,,,,,,24.19679439999163,24.690304399991874,25.446013499982655,a,1,0.7485924000502564,None,,,,,,,,,,,,,,,p003,2026-04-14_12h22.00.699,Flanker Compatibility Task,,2026.1.1,119.16564981454972,2026-04-14 12h22.00.999747 +0800
3,square,cong,-10,a,1,10,10,0,a,1,0.7457609,None,0,10,10,8,,,,,25.454100099974312,,,,,,,,25.44734299997799,25.940734800009523,26.69497810001485,a,1,0.7457609,None,,,,,,,,,,,,,,,p003,2026-04-14_12h22.00.699,Flanker Compatibility Task,,2026.1.1,119.16564981454972,2026-04-14 12h22.00.999747 +0800
2,diamond,cong,-10,l,3,11,11,0,a,0,1.0410419999971054,None,0,11,11,6,,,,,26.70286700001452,,,,,,,,26.696190399990883,27.1913483,28.237724100006744,a,0,1.0410419999971054,None,,,,,,,,,,,,,,,p003,2026-04-14_12h22.00.699,Flanker Compatibility Task,,2026.1.1,119.16564981454972,2026-04-14 12h22.00.999747 +0800
4,diamond,incong,10,l,2,12,12,0,l,1,2.1613779,None,0,12,12,15,,,,,28.244094000023324,,,,,,,,28.23926240002038,28.73291620000964,30.90241949999472,l,1,2.1613779,None,,,,,,,,,,,,,,,p003,2026-04-14_12h22.00.699,Flanker Compatibility Task,,2026.1.1,119.16564981454972,2026-04-14 12h22.00.999747 +0800
1,diamond,cong,10,l,0,13,13,0,l,1,0.5229972000233829,None,0,13,13,2,,,,,30.91082569997525,,,,,,,,30.90357030002633,31.40166610002052,31.92826979997335,l,1,0.5229972000233829,None,,,,,,,,,,,,,,,p003,2026-04-14_12h22.00.699,Flanker Compatibility Task,,2026.1.1,119.16564981454972,2026-04-14 12h22.00.999747 +0800
4,square,incong,-10,a,1,14,14,0,a,1,0.6658460999606177,None,0,14,14,13,,,,,31.934971000009682,,,,,,,,31.929800499987323,32.42401539999992,33.093893499986734,a,1,0.6658460999606177,None,,,,,,,,,,,,,,,p003,2026-04-14_12h22.00.699,Flanker Compatibility Task,,2026.1.1,119.16564981454972,2026-04-14 12h22.00.999747 +0800
1,square,incong,10,a,3,15,15,0,a,1,0.7712533000158146,None,0,15,15,1,,,,,33.101174300012644,,,,,,,,33.09503500000574,33.58848149998812,34.36828170000808,a,1,0.7712533000158146,None,,,,,,,,,,,,,,,p003,2026-04-14_12h22.00.699,Flanker Compatibility Task,,2026.1.1,119.16564981454972,2026-04-14 12h22.00.999747 +0800
,,,,,,,,,,,,,,,,,,,,,,,,,,,,,,,,,,,,34.36843490001047,42.2841053,space,7.421777299954556,None,,,,,,,,,,p003,2026-04-14_12h22.00.699,Flanker Compatibility Task,,2026.1.1,119.16564981454972,2026-04-14 12h22.00.999747 +0800
4,diamond,incong,10,l,4,0,0,0,l,1,1.3104961999924853,None,,,,,0,0,0,190,42.346268599969335,,,,,,,,42.33616609999444,42.78491430002032,44.09827110002516,,,,,,,,,,l,1,1.3104961999924853,None,,,,,,p003,2026-04-14_12h22.00.699,Flanker Compatibility Task,,2026.1.1,119.16564981454972,2026-04-14 12h22.00.999747 +0800
4,square,cong,-10,a,2,1,1,0,a,1,1.2834157000179403,None,,,,,0,1,1,146,44.10436200001277,,,,,,,,44.10032029997092,44.60055249999277,45.888462500006426,,,,,,,,,,a,1,1.2834157000179403,None,,,,,,p003,2026-04-14_12h22.00.699,Flanker Compatibility Task,,2026.1.1,119.16564981454972,2026-04-14 12h22.00.999747 +0800
2,diamond,incong,10,l,0,2,2,0,l,1,1.2127631999901496,None,,,,,0,2,2,90,45.895981699984986,,,,,,,,45.889787500025705,46.3908136,47.60498070000904,,,,,,,,,,l,1,1.2127631999901496,None,,,,,,p003,2026-04-14_12h22.00.699,Flanker Compatibility Task,,2026.1.1,119.16564981454972,2026-04-14 12h22.00.999747 +0800
3,square,cong,-10,a,4,3,3,0,a,1,1.3024711000034586,None,,,,,0,3,3,100,47.61166609998327,,,,,,,,47.60642089997418,48.10504039999796,49.41180090000853,,,,,,,,,,a,1,1.3024711000034586,None,,,,,,p003,2026-04-14_12h22.00.699,Flanker Compatibility Task,,2026.1.1,119.16564981454972,2026-04-14 12h22.00.999747 +0800
4,square,cong,10,a,1,4,4,0,a,1,0.9843019999680109,None,,,,,0,4,4,151,49.42049300001236,,,,,,,,49.41325440001674,49.905297600023914,50.89508149999892,,,,,,,,,,a,1,0.9843019999680109,None,,,,,,p003,2026-04-14_12h22.00.699,Flanker Compatibility Task,,2026.1.1,119.16564981454972,2026-04-14 12h22.00.999747 +0800
4,diamond,incong,10,l,2,5,5,0,l,1,2.811925899994094,None,,,,,0,5,5,188,50.90357620001305,,,,,,,,50.896504600008484,51.39889509999193,54.2120288,,,,,,,,,,l,1,2.811925899994094,None,,,,,,p003,2026-04-14_12h22.00.699,Flanker Compatibility Task,,2026.1.1,119.16564981454972,2026-04-14 12h22.00.999747 +0800
2,square,cong,-10,a,2,6,6,0,a,1,0.8540417999611236,None,,,,,0,6,6,50,54.21836230001645,,,,,,,,54.21332069998607,54.71500670001842,55.577371400024276,,,,,,,,,,a,1,0.8540417999611236,None,,,,,,p003,2026-04-14_12h22.00.699,Flanker Compatibility Task,,2026.1.1,119.16564981454972,2026-04-14 12h22.00.999747 +0800
2,diamond,cong,10,l,2,7,7,0,l,1,0.7580868999939412,None,,,,,0,7,7,80,55.58577679999871,,,,,,,,55.5783475,56.07173359999433,56.835392399982084,,,,,,,,,,l,1,0.7580868999939412,None,,,,,,p003,2026-04-14_12h22.00.699,Flanker Compatibility Task,,2026.1.1,119.16564981454972,2026-04-14 12h22.00.999747 +0800
2,square,incong,10,a,3,8,8,0,a,1,0.7160993000143208,None,,,,,0,8,8,69,56.84273219999159,,,,,,,,56.83659010002157,57.33887330000289,58.05993039999157,,,,,,,,,,a,1,0.7160993000143208,None,,,,,,p003,2026-04-14_12h22.00.699,Flanker Compatibility Task,,2026.1.1,119.16564981454972,2026-04-14 12h22.00.999747 +0800
4,diamond,cong,10,l,2,9,9,0,l,1,1.427675300044939,None,,,,,0,9,9,176,58.06837589998031,,,,,,,,58.061355700017884,58.55529230000684,59.98485680000158,,,,,,,,,,l,1,1.427675300044939,None,,,,,,p003,2026-04-14_12h22.00.699,Flanker Compatibility Task,,2026.1.1,119.16564981454972,2026-04-14 12h22.00.999747 +0800
4,diamond,cong,10,l,3,10,10,0,l,1,2.0319415000267327,None,,,,,0,10,10,177,59.99184480000986,,,,,,,,59.98641900002258,60.48078909999458,62.51721949997591,,,,,,,,,,l,1,2.0319415000267327,None,,,,,,p003,2026-04-14_12h22.00.699,Flanker Compatibility Task,,2026.1.1,119.16564981454972,2026-04-14 12h22.00.999747 +0800
3,square,cong,-10,a,5,11,11,0,a,1,0.6614768999861553,None,,,,,0,11,11,101,62.5254046,,,,,,,,62.51856160000898,63.01195850002114,63.67538859997876,,,,,,,,,,a,1,0.6614768999861553,None,,,,,,p003,2026-04-14_12h22.00.699,Flanker Compatibility Task,,2026.1.1,119.16564981454972,2026-04-14 12h22.00.999747 +0800
4,diamond,incong,-10,l,0,12,12,0,l,1,1.1486160999629647,None,,,,,0,12,12,180,63.6825798,,,,,,,,63.67676020000363,64.17094599996926,65.32473579997895,,,,,,,,,,l,1,1.1486160999629647,None,,,,,,p003,2026-04-14_12h22.00.699,Flanker Compatibility Task,,2026.1.1,119.16564981454972,2026-04-14 12h22.00.999747 +0800
2,square,cong,-10,a,4,13,13,0,a,1,0.6609157999628223,None,,,,,0,13,13,52,65.33294669998577,,,,,,,,65.32600830000592,65.820854,66.48363119998248,,,,,,,,,,a,1,0.6609157999628223,None,,,,,,p003,2026-04-14_12h22.00.699,Flanker Compatibility Task,,2026.1.1,119.16564981454972,2026-04-14 12h22.00.999747 +0800
3,square,incong,10,a,2,14,14,0,a,1,0.8633446999592707,None,,,,,0,14,14,116,66.49098200001754,,,,,,,,66.48502339998959,66.98667710000882,67.85784269997384,,,,,,,,,,a,1,0.8633446999592707,None,,,,,,p003,2026-04-14_12h22.00.699,Flanker Compatibility Task,,2026.1.1,119.16564981454972,2026-04-14 12h22.00.999747 +0800
4,square,incong,10,a,4,15,15,0,a,1,1.5405080000055023,None,,,,,0,15,15,166,67.8649459,,,,,,,,67.85940409998875,68.35977380000986,69.90781960001914,,,,,,,,,,a,1,1.5405080000055023,None,,,,,,p003,2026-04-14_12h22.00.699,Flanker Compatibility Task,,2026.1.1,119.16564981454972,2026-04-14 12h22.00.999747 +0800
4,square,cong,10,a,3,16,16,0,a,1,1.7856075000017881,None,,,,,0,16,16,153,69.91560020000907,,,,,,,,69.90948009997373,70.40261330001522,72.18984499998624,,,,,,,,,,a,1,1.7856075000017881,None,,,,,,p003,2026-04-14_12h22.00.699,Flanker Compatibility Task,,2026.1.1,119.16564981454972,2026-04-14 12h22.00.999747 +0800
3,diamond,incong,-10,l,0,17,17,0,l,1,0.6740601999917999,None,,,,,0,17,17,132,72.19748690002598,,,,,,,,72.19114329997683,72.68528029997833,73.36475639999844,,,,,,,,,,l,1,0.6740601999917999,None,,,,,,p003,2026-04-14_12h22.00.699,Flanker Compatibility Task,,2026.1.1,119.16564981454972,2026-04-14 12h22.00.999747 +0800
3,square,incong,-10,a,1,18,18,0,a,1,0.6751451999880373,None,,,,,0,18,18,109,73.37277870002436,,,,,,,,73.36611150001409,73.86053970002104,74.53902139997808,,,,,,,,,,a,1,0.6751451999880373,None,,,,,,p003,2026-04-14_12h22.00.699,Flanker Compatibility Task,,2026.1.1,119.16564981454972,2026-04-14 12h22.00.999747 +0800
3,square,incong,10,a,1,19,19,0,a,1,1.6662634999956936,None,,,,,0,19,19,115,74.5465648,,,,,,,,74.54037940001581,75.03397709998535,76.70519409998087,,,,,,,,,,a,1,1.6662634999956936,None,,,,,,p003,2026-04-14_12h22.00.699,Flanker Compatibility Task,,2026.1.1,119.16564981454972,2026-04-14 12h22.00.999747 +0800
3,diamond,cong,10,l,0,20,20,0,l,1,1.1150898999767378,None,,,,,0,20,20,126,76.71369990002131,,,,,,,,76.70656030002283,77.20082069997443,78.32134319999022,,,,,,,,,,l,1,1.1150898999767378,None,,,,,,p003,2026-04-14_12h22.00.699,Flanker Compatibility Task,,2026.1.1,119.16564981454972,2026-04-14 12h22.00.999747 +0800
2,diamond,cong,-10,l,1,21,21,0,l,1,1.4866828999947757,None,,,,,0,21,21,73,78.32894520001719,,,,,,,,78.32275450002635,78.81672910001362,80.30642099998659,,,,,,,,,,l,1,1.4866828999947757,None,,,,,,p003,2026-04-14_12h22.00.699,Flanker Compatibility Task,,2026.1.1,119.16564981454972,2026-04-14 12h22.00.999747 +0800
3,square,incong,-10,a,4,22,22,0,a,1,0.8684111000038683,None,,,,,0,22,22,112,80.3118555,,,,,,,,80.30788300000131,80.8082442,81.67907969997032,,,,,,,,,,a,1,0.8684111000038683,None,,,,,,p003,2026-04-14_12h22.00.699,Flanker Compatibility Task,,2026.1.1,119.16564981454972,2026-04-14 12h22.00.999747 +0800
1,square,incong,-10,a,4,23,23,0,a,1,0.4557469999999739,None,,,,,0,23,23,16,81.68671059998451,,,,,,,,81.68021239998052,82.17420850001508,82.63699490000727,,,,,,,,,,a,1,0.4557469999999739,None,,,,,,p003,2026-04-14_12h22.00.699,Flanker Compatibility Task,,2026.1.1,119.16564981454972,2026-04-14 12h22.00.999747 +0800
4,square,incong,-10,a,0,24,24,0,a,1,1.7146636999677867,None,,,,,0,24,24,156,82.64562069997191,,,,,,,,82.63841979997233,83.13414280000143,84.85423380002612,,,,,,,,,,a,1,1.7146636999677867,None,,,,,,p003,2026-04-14_12h22.00.699,Flanker Compatibility Task,,2026.1.1,119.16564981454972,2026-04-14 12h22.00.999747 +0800
1,diamond,incong,-10,l,4,25,25,0,l,1,0.6565076000406407,None,,,,,0,25,25,40,84.86115080001764,,,,,,,,84.85549370001536,85.35405089997221,86.01261610002257,,,,,,,,,,l,1,0.6565076000406407,None,,,,,,p003,2026-04-14_12h22.00.699,Flanker Compatibility Task,,2026.1.1,119.16564981454972,2026-04-14 12h22.00.999747 +0800
4,square,cong,-10,a,5,26,26,0,a,1,1.0581658000010066,None,,,,,0,26,26,149,86.02004610002041,,,,,,,,86.0137958,86.51390979997814,87.57739639998181,,,,,,,,,,a,1,1.0581658000010066,None,,,,,,p003,2026-04-14_12h22.00.699,Flanker Compatibility Task,,2026.1.1,119.16564981454972,2026-04-14 12h22.00.999747 +0800
1,diamond,incong,-10,l,5,27,27,0,l,1,0.5374810000066645,None,,,,,0,27,27,41,87.58531930000754,,,,,,,,87.57857940002577,88.07222420000471,88.61199180001859,,,,,,,,,,l,1,0.5374810000066645,None,,,,,,p003,2026-04-14_12h22.00.699,Flanker Compatibility Task,,2026.1.1,119.16564981454972,2026-04-14 12h22.00.999747 +0800
3,square,cong,10,a,3,28,28,0,a,1,1.2205170000088401,None,,,,,0,28,28,105,88.61894630000461,,,,,,,,88.6134383,89.11445519997505,90.33568560000276,,,,,,,,,,a,1,1.2205170000088401,None,,,,,,p003,2026-04-14_12h22.00.699,Flanker Compatibility Task,,2026.1.1,119.16564981454972,2026-04-14 12h22.00.999747 +0800
2,diamond,incong,10,l,3,29,29,0,l,1,0.6565397999947891,None,,,,,0,29,29,93,90.34251260000747,,,,,,,,90.33694020000985,90.82978319999529,91.49366179999197,,,,,,,,,,l,1,0.6565397999947891,None,,,,,,p003,2026-04-14_12h22.00.699,Flanker Compatibility Task,,2026.1.1,119.16564981454972,2026-04-14 12h22.00.999747 +0800
4,square,incong,10,a,2,30,30,0,a,1,1.3807758999755606,None,,,,,0,30,30,164,91.50188230001368,,,,,,,,91.49513330002083,91.99536519998219,93.38458289997652,,,,,,,,,,a,1,1.3807758999755606,None,,,,,,p003,2026-04-14_12h22.00.699,Flanker Compatibility Task,,2026.1.1,119.16564981454972,2026-04-14 12h22.00.999747 +0800
2,square,incong,-10,a,1,31,31,0,a,1,0.9864498000242747,None,,,,,0,31,31,61,93.39210719999392,,,,,,,,93.38581519998843,93.88750660000369,94.87582179997116,,,,,,,,,,a,1,0.9864498000242747,None,,,,,,p003,2026-04-14_12h22.00.699,Flanker Compatibility Task,,2026.1.1,119.16564981454972,2026-04-14 12h22.00.999747 +0800
1,diamond,cong,-10,l,4,32,32,0,l,1,0.5507524000131525,None,,,,,0,32,32,28,94.88322969997535,,,,,,,,94.87657600000966,95.37094120000256,95.92647090001265,,,,,,,,,,l,1,0.5507524000131525,None,,,,,,p003,2026-04-14_12h22.00.699,Flanker Compatibility Task,,2026.1.1,119.16564981454972,2026-04-14 12h22.00.999747 +0800
3,square,incong,10,a,5,33,33,0,a,1,1.2964044000254944,None,,,,,0,33,33,119,95.93315669998992,,,,,,,,95.92788490001112,96.42146189999767,97.71897829999216,,,,,,,,,,a,1,1.2964044000254944,None,,,,,,p003,2026-04-14_12h22.00.699,Flanker Compatibility Task,,2026.1.1,119.16564981454972,2026-04-14 12h22.00.999747 +0800
1,diamond,incong,10,l,0,34,34,0,l,1,0.6477575000026263,None,,,,,0,34,34,42,97.72465370001737,,,,,,,,97.72022149997065,98.22042640001746,98.87596560001839,,,,,,,,,,l,1,0.6477575000026263,None,,,,,,p003,2026-04-14_12h22.00.699,Flanker Compatibility Task,,2026.1.1,119.16564981454972,2026-04-14 12h22.00.999747 +0800
3,diamond,cong,10,l,4,35,35,0,l,1,1.4352875999757089,None,,,,,0,35,35,130,98.8835328,,,,,,,,98.87741349998396,99.37075760000153,100.80921450001188,,,,,,,,,,l,1,1.4352875999757089,None,,,,,,p003,2026-04-14_12h22.00.699,Flanker Compatibility Task,,2026.1.1,119.16564981454972,2026-04-14 12h22.00.999747 +0800
1,diamond,incong,10,l,2,36,36,0,l,1,0.6347232999978587,None,,,,,0,36,36,44,100.81585840001935,,,,,,,,100.81047010002658,101.30836369999452,101.94925359997433,,,,,,,,,,l,1,0.6347232999978587,None,,,,,,p003,2026-04-14_12h22.00.699,Flanker Compatibility Task,,2026.1.1,119.16564981454972,2026-04-14 12h22.00.999747 +0800
2,diamond,cong,10,l,5,37,37,0,l,1,0.6211577999638394,None,,,,,0,37,37,83,101.95704319997458,,,,,,,,101.95048739999766,102.44291370001156,103.06616470002336,,,,,,,,,,l,1,0.6211577999638394,None,,,,,,p003,2026-04-14_12h22.00.699,Flanker Compatibility Task,,2026.1.1,119.16564981454972,2026-04-14 12h22.00.999747 +0800
4,diamond,cong,-10,l,1,38,38,0,l,1,1.2065575000015087,None,,,,,0,38,38,169,103.07286399998702,,,,,,,,103.06770319998031,103.56079750001663,104.77405210002325,,,,,,,,,,l,1,1.2065575000015087,None,,,,,,p003,2026-04-14_12h22.00.699,Flanker Compatibility Task,,2026.1.1,119.16564981454972,2026-04-14 12h22.00.999747 +0800
3,square,cong,-10,a,0,39,39,0,a,1,0.588399,None,,,,,0,39,39,96,104.78141860000324,,,,,,,,104.77547120000236,105.26933119999012,105.86481840000488,,,,,,,,,,a,1,0.588399,None,,,,,,p003,2026-04-14_12h22.00.699,Flanker Compatibility Task,,2026.1.1,119.16564981454972,2026-04-14 12h22.00.999747 +0800
4,diamond,cong,-10,l,4,40,40,0,l,1,0.9352191999787465,None,,,,,0,40,40,172,105.87313319998793,,,,,,,,105.86625289998483,106.35897920001298,107.29908279998926,,,,,,,,,,l,1,0.9352191999787465,None,,,,,,p003,2026-04-14_12h22.00.699,Flanker Compatibility Task,,2026.1.1,119.16564981454972,2026-04-14 12h22.00.999747 +0800
3,square,incong,-10,a,3,41,41,0,a,1,0.7483670000219718,None,,,,,0,41,41,111,107.30569950002246,,,,,,,,107.30052370001795,107.80141269997694,108.55650289996993,,,,,,,,,,a,1,0.7483670000219718,None,,,,,,p003,2026-04-14_12h22.00.699,Flanker Compatibility Task,,2026.1.1,119.16564981454972,2026-04-14 12h22.00.999747 +0800
3,diamond,cong,10,l,1,42,42,0,l,1,1.0543966999975964,None,,,,,0,42,42,127,108.56400920002488,,,,,,,,108.55783250002423,109.05176479998045,110.11466730001848,,,,,,,,,,l,1,1.0543966999975964,None,,,,,,p003,2026-04-14_12h22.00.699,Flanker Compatibility Task,,2026.1.1,119.16564981454972,2026-04-14 12h22.00.999747 +0800
2,diamond,incong,-10,l,1,43,43,0,l,1,1.1080987000023015,None,,,,,0,43,43,85,110.12217849999433,,,,,,,,110.11617850000039,110.60907940001925,111.72331590001704,,,,,,,,,,l,1,1.1080987000023015,None,,,,,,p003,2026-04-14_12h22.00.699,Flanker Compatibility Task,,2026.1.1,119.16564981454972,2026-04-14 12h22.00.999747 +0800
4,square,cong,-10,a,4,44,44,0,a,1,0.7117380000418052,None,,,,,0,44,44,148,111.72962719999487,,,,,,,,111.72484949999489,112.22685219999403,112.94754760002252,,,,,,,,,,a,1,0.7117380000418052,None,,,,,,p003,2026-04-14_12h22.00.699,Flanker Compatibility Task,,2026.1.1,119.16564981454972,2026-04-14 12h22.00.999747 +0800
2,diamond,incong,10,l,2,45,45,0,l,1,0.8577096000080928,None,,,,,0,45,45,92,112.95530430000508,,,,,,,,112.94891480001388,113.44937559997197,114.31345680000959,,,,,,,,,,l,1,0.8577096000080928,None,,,,,,p003,2026-04-14_12h22.00.699,Flanker Compatibility Task,,2026.1.1,119.16564981454972,2026-04-14 12h22.00.999747 +0800
4,diamond,cong,10,l,4,46,46,0,l,1,1.083772299985867,None,,,,,0,46,46,178,114.32087390002562,,,,,,,,114.31509230000665,114.82432710001012,115.91310740000335,,,,,,,,,,l,1,1.083772299985867,None,,,,,,p003,2026-04-14_12h22.00.699,Flanker Compatibility Task,,2026.1.1,119.16564981454972,2026-04-14 12h22.00.999747 +0800
1,square,cong,10,a,4,47,47,0,a,1,0.5483604000182822,None,,,,,0,47,47,10,115.92078490002314,,,,,,,,115.91423220001161,116.4074108999921,116.96320569998352,,,,,,,,,,a,1,0.5483604000182822,None,,,,,,p003,2026-04-14_12h22.00.699,Flanker Compatibility Task,,2026.1.1,119.16564981454972,2026-04-14 12h22.00.999747 +0800
3,square,incong,10,a,0,48,48,0,a,1,1.0382511999923736,None,,,,,0,48,48,114,116.97093439998571,,,,,,,,116.96460120001575,117.46546749997651,118.51280580001185,,,,,,,,,,a,1,1.0382511999923736,None,,,,,,p003,2026-04-14_12h22.00.699,Flanker Compatibility Task,,2026.1.1,119.16564981454972,2026-04-14 12h22.00.999747 +0800
4,square,incong,10,a,0,49,49,0,a,1,0.5893293000408448,None,,,,,0,49,49,162,118.52013630000874,,,,,,,,118.51437160000205,119.01554930000566,119.61355000000913,,,,,,,,,,a,1,0.5893293000408448,None,,,,,,p003,2026-04-14_12h22.00.699,Flanker Compatibility Task,,2026.1.1,119.16564981454972,2026-04-14 12h22.00.999747 +0800
4,diamond,cong,10,l,5,50,50,0,l,1,1.2678822000161745,None,,,,,0,50,50,179,119.62093279999681,,,,,,,,119.61508780001896,120.11610300000757,121.38643379998393,,,,,,,,,,l,1,1.2678822000161745,None,,,,,,p003,2026-04-14_12h22.00.699,Flanker Compatibility Task,,2026.1.1,119.16564981454972,2026-04-14 12h22.00.999747 +0800
1,square,incong,-10,a,1,51,51,0,a,1,0.7591678000171669,None,,,,,0,51,51,13,121.39409770001657,,,,,,,,121.38763730000937,121.8804347999976,122.64528120000614,,,,,,,,,,a,1,0.7591678000171669,None,,,,,,p003,2026-04-14_12h22.00.699,Flanker Compatibility Task,,2026.1.1,119.16564981454972,2026-04-14 12h22.00.999747 +0800
2,square,incong,-10,a,2,52,52,0,a,1,0.7923176999902353,None,,,,,0,52,52,62,122.65247590001673,,,,,,,,122.64664210000774,123.14710060000652,123.94338740000967,,,,,,,,,,a,1,0.7923176999902353,None,,,,,,p003,2026-04-14_12h22.00.699,Flanker Compatibility Task,,2026.1.1,119.16564981454972,2026-04-14 12h22.00.999747 +0800
4,diamond,incong,-10,l,4,53,53,0,l,1,1.2576117999851704,None,,,,,0,53,53,184,123.95213400002103,,,,,,,,123.94451250002021,124.44073859998025,125.70345989998896,,,,,,,,,,l,1,1.2576117999851704,None,,,,,,p003,2026-04-14_12h22.00.699,Flanker Compatibility Task,,2026.1.1,119.16564981454972,2026-04-14 12h22.00.999747 +0800
2,square,cong,10,a,5,54,54,0,a,1,0.7860720999888144,None,,,,,0,54,54,59,125.71004600002198,,,,,,,,125.70519800001057,126.20546949998243,126.99354920000769,,,,,,,,,,a,1,0.7860720999888144,None,,,,,,p003,2026-04-14_12h22.00.699,Flanker Compatibility Task,,2026.1.1,119.16564981454972,2026-04-14 12h22.00.999747 +0800
3,diamond,incong,10,l,1,55,55,0,l,1,2.429288399987854,None,,,,,0,55,55,139,127.00031690002652,,,,,,,,126.99498499999754,127.48888419999275,129.92526270000963,,,,,,,,,,l,1,2.429288399987854,None,,,,,,p003,2026-04-14_12h22.00.699,Flanker Compatibility Task,,2026.1.1,119.16564981454972,2026-04-14 12h22.00.999747 +0800
2,diamond,cong,-10,l,4,56,56,0,l,1,0.8476968000177294,None,,,,,0,56,56,76,129.93298099999083,,,,,,,,129.92615710000973,130.42018209997332,131.27508160000434,,,,,,,,,,l,1,0.8476968000177294,None,,,,,,p003,2026-04-14_12h22.00.699,Flanker Compatibility Task,,2026.1.1,119.16564981454972,2026-04-14 12h22.00.999747 +0800
1,diamond,incong,-10,l,0,57,57,0,l,1,0.9798991000279784,None,,,,,0,57,57,36,131.28374500002246,,,,,,,,131.2762178,131.77075640001567,132.7513367999927,,,,,,,,,,l,1,0.9798991000279784,None,,,,,,p003,2026-04-14_12h22.00.699,Flanker Compatibility Task,,2026.1.1,119.16564981454972,2026-04-14 12h22.00.999747 +0800
3,diamond,cong,-10,l,0,58,58,0,l,1,1.1674007999827154,None,,,,,0,58,58,120,132.75773790001404,,,,,,,,132.75285129999975,133.2530900000129,134.42543090000981,,,,,,,,,,l,1,1.1674007999827154,None,,,,,,p003,2026-04-14_12h22.00.699,Flanker Compatibility Task,,2026.1.1,119.16564981454972,2026-04-14 12h22.00.999747 +0800
4,diamond,incong,-10,l,3,59,59,0,l,1,1.108364200044889,None,,,,,0,59,59,183,134.43193199997768,,,,,,,,134.4269806999946,134.9283364000148,136.04239369998686,,,,,,,,,,l,1,1.108364200044889,None,,,,,,p003,2026-04-14_12h22.00.699,Flanker Compatibility Task,,2026.1.1,119.16564981454972,2026-04-14 12h22.00.999747 +0800
3,square,incong,-10,a,5,60,60,0,a,1,0.6686931000440381,None,,,,,0,60,60,113,136.0483389,,,,,,,,136.04384519997984,136.54461609997088,137.21584640000947,,,,,,,,,,a,1,0.6686931000440381,None,,,,,,p003,2026-04-14_12h22.00.699,Flanker Compatibility Task,,2026.1.1,119.16564981454972,2026-04-14 12h22.00.999747 +0800
3,diamond,incong,10,l,3,61,61,0,l,1,0.8239219000097364,None,,,,,0,61,61,141,137.22315909998724,,,,,,,,137.2172718999791,137.71087989996886,138.53992920002202,,,,,,,,,,l,1,0.8239219000097364,None,,,,,,p003,2026-04-14_12h22.00.699,Flanker Compatibility Task,,2026.1.1,119.16564981454972,2026-04-14 12h22.00.999747 +0800
4,square,incong,10,a,5,62,62,0,a,1,0.7420037999982014,None,,,,,0,62,62,167,138.54824069997994,,,,,,,,138.5417230000021,139.0358781,139.78147290000925,,,,,,,,,,a,1,0.7420037999982014,None,,,,,,p003,2026-04-14_12h22.00.699,Flanker Compatibility Task,,2026.1.1,119.16564981454972,2026-04-14 12h22.00.999747 +0800
2,square,incong,10,a,4,63,63,0,a,1,0.5882438999833539,None,,,,,0,63,63,70,139.79009470000165,,,,,,,,139.78273350000381,140.27647500002058,140.87376059999224,,,,,,,,,,a,1,0.5882438999833539,None,,,,,,p003,2026-04-14_12h22.00.699,Flanker Compatibility Task,,2026.1.1,119.16564981454972,2026-04-14 12h22.00.999747 +0800
2,square,cong,-10,a,3,64,64,0,a,1,0.8670970000093803,None,,,,,0,64,64,51,140.8802174999728,,,,,,,,140.87508809997234,141.37277969997376,142.24075300002005,,,,,,,,,,a,1,0.8670970000093803,None,,,,,,p003,2026-04-14_12h22.00.699,Flanker Compatibility Task,,2026.1.1,119.16564981454972,2026-04-14 12h22.00.999747 +0800
1,diamond,cong,10,l,1,65,65,0,l,1,0.5935875999857672,None,,,,,0,65,65,31,142.24667369999224,,,,,,,,142.2420126,142.7429396000225,143.33956569997827,,,,,,,,,,l,1,0.5935875999857672,None,,,,,,p003,2026-04-14_12h22.00.699,Flanker Compatibility Task,,2026.1.1,119.16564981454972,2026-04-14 12h22.00.999747 +0800
4,square,incong,-10,a,5,66,66,0,a,1,0.8414085000404157,None,,,,,0,66,66,161,143.3464439000236,,,,,,,,143.34114189998945,143.83363860001555,144.68001489999006,,,,,,,,,,a,1,0.8414085000404157,None,,,,,,p003,2026-04-14_12h22.00.699,Flanker Compatibility Task,,2026.1.1,119.16564981454972,2026-04-14 12h22.00.999747 +0800
3,diamond,cong,-10,l,3,67,67,0,l,1,0.7742855,None,,,,,0,67,67,123,144.6874855,,,,,,,,144.6815676999977,145.17394469998544,145.95479150000028,,,,,,,,,,l,1,0.7742855,None,,,,,,p003,2026-04-14_12h22.00.699,Flanker Compatibility Task,,2026.1.1,119.16564981454972,2026-04-14 12h22.00.999747 +0800
4,diamond,incong,10,l,0,68,68,0,l,1,2.5881965999724343,None,,,,,0,68,68,186,145.96246279997285,,,,,,,,145.9559635000187,146.45051439997042,149.03950100002112,,,,,,,,,,l,1,2.5881965999724343,None,,,,,,p003,2026-04-14_12h22.00.699,Flanker Compatibility Task,,2026.1.1,119.16564981454972,2026-04-14 12h22.00.999747 +0800
3,diamond,cong,-10,l,1,69,69,0,l,1,1.2357711999793537,None,,,,,0,69,69,121,149.04584779997822,,,,,,,,149.04091929999413,149.5415194000234,150.77978240000084,,,,,,,,,,l,1,1.2357711999793537,None,,,,,,p003,2026-04-14_12h22.00.699,Flanker Compatibility Task,,2026.1.1,119.16564981454972,2026-04-14 12h22.00.999747 +0800
3,diamond,incong,10,l,2,70,70,0,l,1,1.3241355000063777,None,,,,,0,70,70,140,150.78625860001193,,,,,,,,150.78119239996886,151.28330239997013,152.6128872000263,,,,,,,,,,l,1,1.3241355000063777,None,,,,,,p003,2026-04-14_12h22.00.699,Flanker Compatibility Task,,2026.1.1,119.16564981454972,2026-04-14 12h22.00.999747 +0800
1,square,cong,10,a,1,71,71,0,a,1,0.5554076000116765,None,,,,,0,71,71,7,152.6189752999926,,,,,,,,152.61415310000302,153.1151622000034,153.67143300001044,,,,,,,,,,a,1,0.5554076000116765,None,,,,,,p003,2026-04-14_12h22.00.699,Flanker Compatibility Task,,2026.1.1,119.16564981454972,2026-04-14 12h22.00.999747 +0800
1,square,incong,-10,a,0,72,72,0,a,1,0.4851454999879934,None,,,,,0,72,72,12,153.67969830002403,,,,,,,,153.67267559998436,154.1710300000268,154.66115060000448,,,,,,,,,,a,1,0.4851454999879934,None,,,,,,p003,2026-04-14_12h22.00.699,Flanker Compatibility Task,,2026.1.1,119.16564981454972,2026-04-14 12h22.00.999747 +0800
1,square,cong,10,a,2,73,73,0,l,0,0.5142395999864675,None,,,,,0,73,73,8,154.66869690001477,,,,,,,,154.6622562999837,155.1559516999987,155.67168410000158,,,,,,,,,,l,0,0.5142395999864675,None,,,,,,p003,2026-04-14_12h22.00.699,Flanker Compatibility Task,,2026.1.1,119.16564981454972,2026-04-14 12h22.00.999747 +0800
3,square,cong,10,a,0,74,74,0,a,1,0.7398609999800101,None,,,,,0,74,74,102,155.67719969997415,,,,,,,,155.67294519999996,156.1726306999917,156.91900709999027,,,,,,,,,,a,1,0.7398609999800101,None,,,,,,p003,2026-04-14_12h22.00.699,Flanker Compatibility Task,,2026.1.1,119.16564981454972,2026-04-14 12h22.00.999747 +0800
3,square,cong,-10,a,2,75,75,0,a,1,1.609728199953679,None,,,,,0,75,75,98,156.92688559996895,,,,,,,,156.92045420000795,157.4133095999714,159.02794679999352,,,,,,,,,,a,1,1.609728199953679,None,,,,,,p003,2026-04-14_12h22.00.699,Flanker Compatibility Task,,2026.1.1,119.16564981454972,2026-04-14 12h22.00.999747 +0800
3,square,cong,10,a,4,76,76,0,a,1,0.7401785000110976,None,,,,,0,76,76,106,159.03404589998536,,,,,,,,159.0293706000084,159.52858629997354,160.26958259998355,,,,,,,,,,a,1,0.7401785000110976,None,,,,,,p003,2026-04-14_12h22.00.699,Flanker Compatibility Task,,2026.1.1,119.16564981454972,2026-04-14 12h22.00.999747 +0800
1,square,cong,-10,a,5,77,77,0,a,1,0.5594784000422806,None,,,,,0,77,77,5,160.27526169997873,,,,,,,,160.2708852000069,160.77165429998422,161.33404970000265,,,,,,,,,,a,1,0.5594784000422806,None,,,,,,p003,2026-04-14_12h22.00.699,Flanker Compatibility Task,,2026.1.1,119.16564981454972,2026-04-14 12h22.00.999747 +0800
2,diamond,cong,-10,l,5,78,78,0,l,1,0.8360438999952748,None,,,,,0,78,78,77,161.3421867999714,,,,,,,,161.33498699998017,161.82982230000198,162.6679333000211,,,,,,,,,,l,1,0.8360438999952748,None,,,,,,p003,2026-04-14_12h22.00.699,Flanker Compatibility Task,,2026.1.1,119.16564981454972,2026-04-14 12h22.00.999747 +0800
3,diamond,cong,10,l,2,79,79,0,l,1,1.092796700017061,None,,,,,0,79,79,128,162.67482080002083,,,,,,,,162.6693232000107,163.1687351000146,164.2679247999913,,,,,,,,,,l,1,1.092796700017061,None,,,,,,p003,2026-04-14_12h22.00.699,Flanker Compatibility Task,,2026.1.1,119.16564981454972,2026-04-14 12h22.00.999747 +0800
4,diamond,cong,-10,l,2,80,80,0,l,1,1.3741266000433825,None,,,,,0,80,80,170,164.27437429997372,,,,,,,,164.2694676,164.7707108000177,166.14949639997212,,,,,,,,,,l,1,1.3741266000433825,None,,,,,,p003,2026-04-14_12h22.00.699,Flanker Compatibility Task,,2026.1.1,119.16564981454972,2026-04-14 12h22.00.999747 +0800
4,square,incong,10,a,1,81,81,0,a,1,1.3371332000242546,None,,,,,0,81,81,163,166.15755910001462,,,,,,,,166.15092919999734,166.6463500999962,167.98416839999845,,,,,,,,,,a,1,1.3371332000242546,None,,,,,,p003,2026-04-14_12h22.00.699,Flanker Compatibility Task,,2026.1.1,119.16564981454972,2026-04-14 12h22.00.999747 +0800
2,diamond,incong,-10,l,0,82,82,0,l,1,0.7339128000312485,None,,,,,0,82,82,84,167.99030689999927,,,,,,,,167.9856001000153,168.48462539998582,169.22451249998994,,,,,,,,,,l,1,0.7339128000312485,None,,,,,,p003,2026-04-14_12h22.00.699,Flanker Compatibility Task,,2026.1.1,119.16564981454972,2026-04-14 12h22.00.999747 +0800
1,square,cong,-10,a,2,83,83,0,a,1,0.6051641,None,,,,,0,83,83,2,169.2325329000014,,,,,,,,169.22576399997342,169.72542350000003,170.33259379997617,,,,,,,,,,a,1,0.6051641,None,,,,,,p003,2026-04-14_12h22.00.699,Flanker Compatibility Task,,2026.1.1,119.16564981454972,2026-04-14 12h22.00.999747 +0800
1,square,incong,-10,a,2,84,84,0,a,1,0.7457760000252165,None,,,,,0,84,84,14,170.33960619999561,,,,,,,,170.33349250000902,170.8262662999914,171.5746032,,,,,,,,,,a,1,0.7457760000252165,None,,,,,,p003,2026-04-14_12h22.00.699,Flanker Compatibility Task,,2026.1.1,119.16564981454972,2026-04-14 12h22.00.999747 +0800
1,square,incong,10,a,1,85,85,0,a,1,0.9410447000409476,None,,,,,0,85,85,19,171.58167839999078,,,,,,,,171.57585770002333,172.06857509998372,173.01486910000676,,,,,,,,,,a,1,0.9410447000409476,None,,,,,,p003,2026-04-14_12h22.00.699,Flanker Compatibility Task,,2026.1.1,119.16564981454972,2026-04-14 12h22.00.999747 +0800
3,diamond,incong,-10,l,3,86,86,0,l,1,1.1049980000243522,None,,,,,0,86,86,135,173.02306269999826,,,,,,,,173.0162149000098,173.5107166999951,174.623207,,,,,,,,,,l,1,1.1049980000243522,None,,,,,,p003,2026-04-14_12h22.00.699,Flanker Compatibility Task,,2026.1.1,119.16564981454972,2026-04-14 12h22.00.999747 +0800
2,diamond,incong,10,l,4,87,87,0,l,1,0.9169192999834195,None,,,,,0,87,87,94,174.63133720000042,,,,,,,,174.6244357000105,175.1171385999769,176.03894419997232,,,,,,,,,,l,1,0.9169192999834195,None,,,,,,p003,2026-04-14_12h22.00.699,Flanker Compatibility Task,,2026.1.1,119.16564981454972,2026-04-14 12h22.00.999747 +0800
1,diamond,cong,10,l,0,88,88,0,l,1,0.649877,None,,,,,0,88,88,30,176.04741509997984,,,,,,,,176.04020960000344,176.53144709998742,177.18217189999996,,,,,,,,,,l,1,0.649877,None,,,,,,p003,2026-04-14_12h22.00.699,Flanker Compatibility Task,,2026.1.1,119.16564981454972,2026-04-14 12h22.00.999747 +0800
2,diamond,cong,10,l,4,89,89,0,l,1,0.5897973999963142,None,,,,,0,89,89,82,177.18792310002027,,,,,,,,177.18348289997084,177.6832648999989,178.28075799997896,,,,,,,,,,l,1,0.5897973999963142,None,,,,,,p003,2026-04-14_12h22.00.699,Flanker Compatibility Task,,2026.1.1,119.16564981454972,2026-04-14 12h22.00.999747 +0800
3,diamond,cong,-10,l,5,90,90,0,l,1,0.8310578999808058,None,,,,,0,90,90,125,178.28817179996986,,,,,,,,178.28250889998162,178.77642790001119,179.6129527000012,,,,,,,,,,l,1,0.8310578999808058,None,,,,,,p003,2026-04-14_12h22.00.699,Flanker Compatibility Task,,2026.1.1,119.16564981454972,2026-04-14 12h22.00.999747 +0800
2,diamond,cong,10,l,3,91,91,0,l,1,0.6460587999899872,None,,,,,0,91,91,81,179.62113679997856,,,,,,,,179.61386270000366,180.1037335000001,180.7543968,,,,,,,,,,l,1,0.6460587999899872,None,,,,,,p003,2026-04-14_12h22.00.699,Flanker Compatibility Task,,2026.1.1,119.16564981454972,2026-04-14 12h22.00.999747 +0800
4,diamond,incong,10,l,5,92,92,0,l,1,0.5619385999743827,None,,,,,0,92,92,191,180.7627872999874,,,,,,,,180.75597469997592,181.2501422999776,181.8133159999852,,,,,,,,,,l,1,0.5619385999743827,None,,,,,,p003,2026-04-14_12h22.00.699,Flanker Compatibility Task,,2026.1.1,119.16564981454972,2026-04-14 12h22.00.999747 +0800
4,square,cong,-10,a,0,93,93,0,a,1,0.8434710000292398,None,,,,,0,93,93,144,181.8200418999768,,,,,,,,181.81484599999385,182.3155884000007,183.1618966999813,,,,,,,,,,a,1,0.8434710000292398,None,,,,,,p003,2026-04-14_12h22.00.699,Flanker Compatibility Task,,2026.1.1,119.16564981454972,2026-04-14 12h22.00.999747 +0800
2,square,cong,10,a,4,94,94,0,a,1,0.5770431000273675,None,,,,,0,94,94,58,183.16963219997706,,,,,,,,183.1631634000223,183.65701879997505,184.23717719997512,,,,,,,,,,a,1,0.5770431000273675,None,,,,,,p003,2026-04-14_12h22.00.699,Flanker Compatibility Task,,2026.1.1,119.16564981454972,2026-04-14 12h22.00.999747 +0800
3,diamond,incong,-10,l,4,95,95,0,l,1,1.2615405999822542,None,,,,,0,95,95,136,184.24438549997285,,,,,,,,184.23872429999756,184.7323502000072,185.99577069998486,,,,,,,,,,l,1,1.2615405999822542,None,,,,,,p003,2026-04-14_12h22.00.699,Flanker Compatibility Task,,2026.1.1,119.16564981454972,2026-04-14 12h22.00.999747 +0800
3,diamond,incong,-10,l,2,96,96,0,l,1,1.4102498999563977,None,,,,,0,96,96,134,186.0024762999965,,,,,,,,185.99717480002437,186.4937117000227,187.91123349999543,,,,,,,,,,l,1,1.4102498999563977,None,,,,,,p003,2026-04-14_12h22.00.699,Flanker Compatibility Task,,2026.1.1,119.16564981454972,2026-04-14 12h22.00.999747 +0800
4,square,incong,-10,a,2,97,97,0,a,1,0.6973579000332393,None,,,,,0,97,97,158,187.91874579997966,,,,,,,,187.91266349999933,188.40484139998443,189.10324929998023,,,,,,,,,,a,1,0.6973579000332393,None,,,,,,p003,2026-04-14_12h22.00.699,Flanker Compatibility Task,,2026.1.1,119.16564981454972,2026-04-14 12h22.00.999747 +0800
4,square,cong,-10,a,3,98,98,0,a,1,0.8030576999881305,None,,,,,0,98,98,147,189.10996069997782,,,,,,,,189.10477580002043,189.5985410999856,190.40290019998793,,,,,,,,,,a,1,0.8030576999881305,None,,,,,,p003,2026-04-14_12h22.00.699,Flanker Compatibility Task,,2026.1.1,119.16564981454972,2026-04-14 12h22.00.999747 +0800
1,square,cong,-10,a,1,99,99,0,a,1,0.6269369,None,,,,,0,99,99,1,190.40966950001894,,,,,,,,190.40417819999857,190.89692819997435,191.5283463000087,,,,,,,,,,a,1,0.6269369,None,,,,,,p003,2026-04-14_12h22.00.699,Flanker Compatibility Task,,2026.1.1,119.16564981454972,2026-04-14 12h22.00.999747 +0800
3,square,incong,10,a,4,100,100,0,a,1,1.5114736999967135,None,,,,,0,100,100,118,191.53449719998753,,,,,,,,191.52984779997496,192.02949980000267,193.54358689999208,,,,,,,,,,a,1,1.5114736999967135,None,,,,,,p003,2026-04-14_12h22.00.699,Flanker Compatibility Task,,2026.1.1,119.16564981454972,2026-04-14 12h22.00.999747 +0800
4,square,cong,-10,a,1,101,101,0,a,1,0.6237758,None,,,,,0,101,101,145,193.55041839997284,,,,,,,,193.54513410001528,194.0379910999909,194.66766480001388,,,,,,,,,,a,1,0.6237758,None,,,,,,p003,2026-04-14_12h22.00.699,Flanker Compatibility Task,,2026.1.1,119.16564981454972,2026-04-14 12h22.00.999747 +0800
2,diamond,incong,-10,l,2,102,102,0,l,1,0.7894052999909036,None,,,,,0,102,102,86,194.67600669997046,,,,,,,,194.66889139998239,195.1626386999851,195.96053169999504,,,,,,,,,,l,1,0.7894052999909036,None,,,,,,p003,2026-04-14_12h22.00.699,Flanker Compatibility Task,,2026.1.1,119.16564981454972,2026-04-14 12h22.00.999747 +0800
1,square,cong,10,a,3,103,103,0,a,1,0.6503291000262834,None,,,,,0,103,103,9,195.9672595000011,,,,,,,,195.96178670000518,196.4592391999904,197.11695499997586,,,,,,,,,,a,1,0.6503291000262834,None,,,,,,p003,2026-04-14_12h22.00.699,Flanker Compatibility Task,,2026.1.1,119.16564981454972,2026-04-14 12h22.00.999747 +0800
2,square,incong,10,a,1,104,104,0,a,1,0.5840474999858998,None,,,,,0,104,104,67,197.12463819998084,,,,,,,,197.11786840000423,197.61179290001746,198.20138879999286,,,,,,,,,,a,1,0.5840474999858998,None,,,,,,p003,2026-04-14_12h22.00.699,Flanker Compatibility Task,,2026.1.1,119.16564981454972,2026-04-14 12h22.00.999747 +0800
3,square,incong,10,a,3,105,105,0,a,1,0.7109478000202216,None,,,,,0,105,105,117,198.20763580000494,,,,,,,,198.20309839997208,198.69629240001086,199.40924469998572,,,,,,,,,,a,1,0.7109478000202216,None,,,,,,p003,2026-04-14_12h22.00.699,Flanker Compatibility Task,,2026.1.1,119.16564981454972,2026-04-14 12h22.00.999747 +0800
4,diamond,incong,10,l,3,106,106,0,l,1,0.8667768000159413,None,,,,,0,106,106,189,199.4155902999919,,,,,,,,199.4107557000243,199.90425750002032,200.7755996999913,,,,,,,,,,l,1,0.8667768000159413,None,,,,,,p003,2026-04-14_12h22.00.699,Flanker Compatibility Task,,2026.1.1,119.16564981454972,2026-04-14 12h22.00.999747 +0800
1,square,incong,10,a,3,107,107,0,a,1,0.43886930000735447,None,,,,,0,107,107,21,200.7820019,,,,,,,,200.77684840001166,201.26882559998194,201.71586250001565,,,,,,,,,,a,1,0.43886930000735447,None,,,,,,p003,2026-04-14_12h22.00.699,Flanker Compatibility Task,,2026.1.1,119.16564981454972,2026-04-14 12h22.00.999747 +0800
4,square,cong,10,a,4,108,108,0,a,1,1.4731591,None,,,,,0,108,108,154,201.72343640000327,,,,,,,,201.7172894999967,202.21195949998219,203.6917980000144,,,,,,,,,,a,1,1.4731591,None,,,,,,p003,2026-04-14_12h22.00.699,Flanker Compatibility Task,,2026.1.1,119.16564981454972,2026-04-14 12h22.00.999747 +0800
2,diamond,cong,-10,l,0,109,109,0,l,1,0.6842471999698319,None,,,,,0,109,109,72,203.69851539999945,,,,,,,,203.69317159999628,204.1939481999725,204.8832166,,,,,,,,,,l,1,0.6842471999698319,None,,,,,,p003,2026-04-14_12h22.00.699,Flanker Compatibility Task,,2026.1.1,119.16564981454972,2026-04-14 12h22.00.999747 +0800
4,diamond,cong,-10,l,0,110,110,0,l,1,1.5279091999982484,None,,,,,0,110,110,168,204.8892605,,,,,,,,204.88475339999422,205.38565760001075,206.91471589996945,,,,,,,,,,l,1,1.5279091999982484,None,,,,,,p003,2026-04-14_12h22.00.699,Flanker Compatibility Task,,2026.1.1,119.16564981454972,2026-04-14 12h22.00.999747 +0800
1,diamond,incong,10,l,1,111,111,0,l,1,0.5526335000176914,None,,,,,0,111,111,43,206.92248569999356,,,,,,,,206.91587660001824,207.40968729997985,207.9642519999761,,,,,,,,,,l,1,0.5526335000176914,None,,,,,,p003,2026-04-14_12h22.00.699,Flanker Compatibility Task,,2026.1.1,119.16564981454972,2026-04-14 12h22.00.999747 +0800
3,diamond,cong,-10,l,2,112,112,0,l,1,1.0579659000504762,None,,,,,0,112,112,122,207.97203190001892,,,,,,,,207.96552119997796,208.45909219997702,209.52319620002527,,,,,,,,,,l,1,1.0579659000504762,None,,,,,,p003,2026-04-14_12h22.00.699,Flanker Compatibility Task,,2026.1.1,119.16564981454972,2026-04-14 12h22.00.999747 +0800
3,diamond,incong,-10,l,5,113,113,0,l,1,0.956701,None,,,,,0,113,113,137,209.53037089999998,,,,,,,,209.5246328000212,210.01791120000416,210.98143779998645,,,,,,,,,,l,1,0.956701,None,,,,,,p003,2026-04-14_12h22.00.699,Flanker Compatibility Task,,2026.1.1,119.16564981454972,2026-04-14 12h22.00.999747 +0800
2,diamond,cong,-10,l,2,114,114,0,l,1,0.8328506000107154,None,,,,,0,114,114,74,210.98796399997082,,,,,,,,210.98276280000573,211.4836999999825,212.32180719997268,,,,,,,,,,l,1,0.8328506000107154,None,,,,,,p003,2026-04-14_12h22.00.699,Flanker Compatibility Task,,2026.1.1,119.16564981454972,2026-04-14 12h22.00.999747 +0800
1,diamond,cong,-10,l,2,115,115,0,l,1,0.48141489998670295,None,,,,,0,115,115,26,212.32913879997795,,,,,,,,212.32269990001805,212.8167977000121,213.30478700000094,,,,,,,,,,l,1,0.48141489998670295,None,,,,,,p003,2026-04-14_12h22.00.699,Flanker Compatibility Task,,2026.1.1,119.16564981454972,2026-04-14 12h22.00.999747 +0800
1,square,cong,-10,a,4,116,116,0,a,1,0.5637770000030287,None,,,,,0,116,116,4,213.31205569999292,,,,,,,,213.30567769997288,213.79893869999796,214.36345130001428,,,,,,,,,,a,1,0.5637770000030287,None,,,,,,p003,2026-04-14_12h22.00.699,Flanker Compatibility Task,,2026.1.1,119.16564981454972,2026-04-14 12h22.00.999747 +0800
4,square,incong,-10,a,1,117,117,0,a,1,0.9065453999792226,None,,,,,0,117,117,157,214.3703991000075,,,,,,,,214.36486109998077,214.86497250001412,215.77999200002523,,,,,,,,,,a,1,0.9065453999792226,None,,,,,,p003,2026-04-14_12h22.00.699,Flanker Compatibility Task,,2026.1.1,119.16564981454972,2026-04-14 12h22.00.999747 +0800
3,diamond,cong,10,l,5,118,118,0,l,1,1.8273756999988109,None,,,,,0,118,118,131,215.78715480002575,,,,,,,,215.7815767999855,216.2825557999895,218.11329790001037,,,,,,,,,,l,1,1.8273756999988109,None,,,,,,p003,2026-04-14_12h22.00.699,Flanker Compatibility Task,,2026.1.1,119.16564981454972,2026-04-14 12h22.00.999747 +0800
1,diamond,incong,-10,l,1,119,119,0,l,1,0.7099962999927811,None,,,,,0,119,119,37,218.1201361999847,,,,,,,,218.1145766999689,218.6154560999712,219.32968520000577,,,,,,,,,,l,1,0.7099962999927811,None,,,,,,p003,2026-04-14_12h22.00.699,Flanker Compatibility Task,,2026.1.1,119.16564981454972,2026-04-14 12h22.00.999747 +0800
2,diamond,cong,10,l,1,120,120,0,l,1,0.707804,None,,,,,0,120,120,79,219.33636690001003,,,,,,,,219.3309847000055,219.82886190002318,220.53757210000185,,,,,,,,,,l,1,0.707804,None,,,,,,p003,2026-04-14_12h22.00.699,Flanker Compatibility Task,,2026.1.1,119.16564981454972,2026-04-14 12h22.00.999747 +0800
3,diamond,incong,10,l,5,121,121,0,l,1,1.6118752000038512,None,,,,,0,121,121,143,220.54478769999696,,,,,,,,220.53940760000842,221.04047269996954,222.65395990002435,,,,,,,,,,l,1,1.6118752000038512,None,,,,,,p003,2026-04-14_12h22.00.699,Flanker Compatibility Task,,2026.1.1,119.16564981454972,2026-04-14 12h22.00.999747 +0800
2,square,incong,-10,a,5,122,122,0,a,1,0.6722316999803297,None,,,,,0,122,122,65,222.65997390000848,,,,,,,,222.65532750001876,223.15626479999628,223.83549099997617,,,,,,,,,,a,1,0.6722316999803297,None,,,,,,p003,2026-04-14_12h22.00.699,Flanker Compatibility Task,,2026.1.1,119.16564981454972,2026-04-14 12h22.00.999747 +0800
2,diamond,incong,-10,l,4,123,123,0,l,1,0.9839174000080675,None,,,,,0,123,123,88,223.84361330000684,,,,,,,,223.83671790000517,224.33616509998683,225.32707619998837,,,,,,,,,,l,1,0.9839174000080675,None,,,,,,p003,2026-04-14_12h22.00.699,Flanker Compatibility Task,,2026.1.1,119.16564981454972,2026-04-14 12h22.00.999747 +0800
1,square,incong,10,a,4,124,124,0,a,1,0.6514033999992535,None,,,,,0,124,124,22,225.3344718000153,,,,,,,,225.32826839998597,225.82873940002173,226.48552250000648,,,,,,,,,,a,1,0.6514033999992535,None,,,,,,p003,2026-04-14_12h22.00.699,Flanker Compatibility Task,,2026.1.1,119.16564981454972,2026-04-14 12h22.00.999747 +0800
2,square,cong,10,a,1,125,125,0,a,1,0.7038659999961965,None,,,,,0,125,125,55,226.49293279997073,,,,,,,,226.48664580000332,226.98822860000655,227.6938056999934,,,,,,,,,,a,1,0.7038659999961965,None,,,,,,p003,2026-04-14_12h22.00.699,Flanker Compatibility Task,,2026.1.1,119.16564981454972,2026-04-14 12h22.00.999747 +0800
1,diamond,cong,-10,l,1,126,126,0,l,1,0.6714591999771073,None,,,,,0,126,126,25,227.700353,,,,,,,,227.69505570002366,228.18940049997764,228.86847270000726,,,,,,,,,,l,1,0.6714591999771073,None,,,,,,p003,2026-04-14_12h22.00.699,Flanker Compatibility Task,,2026.1.1,119.16564981454972,2026-04-14 12h22.00.999747 +0800
2,diamond,incong,10,l,5,127,127,0,l,1,0.6447887999820523,None,,,,,0,127,127,95,228.87574270000914,,,,,,,,228.86971379996976,229.37000749999424,230.0170427999692,,,,,,,,,,l,1,0.6447887999820523,None,,,,,,p003,2026-04-14_12h22.00.699,Flanker Compatibility Task,,2026.1.1,119.16564981454972,2026-04-14 12h22.00.999747 +0800
4,diamond,incong,-10,l,2,128,128,0,l,1,1.498632800008636,None,,,,,0,128,128,182,230.02487780002411,,,,,,,,230.01847449998604,230.5089816999971,232.01014450000366,,,,,,,,,,l,1,1.498632800008636,None,,,,,,p003,2026-04-14_12h22.00.699,Flanker Compatibility Task,,2026.1.1,119.16564981454972,2026-04-14 12h22.00.999747 +0800
1,diamond,cong,-10,l,5,129,129,0,l,1,0.6422839000006206,None,,,,,0,129,129,29,232.0160821999889,,,,,,,,232.01155200001085,232.51264069997706,233.1578905999777,,,,,,,,,,l,1,0.6422839000006206,None,,,,,,p003,2026-04-14_12h22.00.699,Flanker Compatibility Task,,2026.1.1,119.16564981454972,2026-04-14 12h22.00.999747 +0800
2,diamond,incong,-10,l,3,130,130,0,l,1,0.5040335999801755,None,,,,,0,130,130,87,233.16606050002156,,,,,,,,233.1590835999814,233.65267480001785,234.15921559999697,,,,,,,,,,l,1,0.5040335999801755,None,,,,,,p003,2026-04-14_12h22.00.699,Flanker Compatibility Task,,2026.1.1,119.16564981454972,2026-04-14 12h22.00.999747 +0800
3,square,cong,-10,a,3,131,131,0,a,1,1.1286147000500932,None,,,,,0,131,131,99,234.16525570000522,,,,,,,,234.1606090000132,234.66146959998878,235.79181179997977,,,,,,,,,,a,1,1.1286147000500932,None,,,,,,p003,2026-04-14_12h22.00.699,Flanker Compatibility Task,,2026.1.1,119.16564981454972,2026-04-14 12h22.00.999747 +0800
2,square,cong,-10,a,0,132,132,0,a,1,0.5411732000065967,None,,,,,0,132,132,48,235.79826299997512,,,,,,,,235.7933177999803,236.28480169997783,236.8331540999934,,,,,,,,,,a,1,0.5411732000065967,None,,,,,,p003,2026-04-14_12h22.00.699,Flanker Compatibility Task,,2026.1.1,119.16564981454972,2026-04-14 12h22.00.999747 +0800
1,square,incong,-10,a,3,133,133,0,a,1,0.6134531000279821,None,,,,,0,133,133,15,236.84055650001392,,,,,,,,236.83441960002529,237.32647209998686,237.94136110000545,,,,,,,,,,a,1,0.6134531000279821,None,,,,,,p003,2026-04-14_12h22.00.699,Flanker Compatibility Task,,2026.1.1,119.16564981454972,2026-04-14 12h22.00.999747 +0800
2,square,incong,-10,a,0,134,134,0,a,1,0.4773022999870591,None,,,,,0,134,134,60,237.94783090002602,,,,,,,,237.94271550001577,238.43638560001273,238.91588360001333,,,,,,,,,,a,1,0.4773022999870591,None,,,,,,p003,2026-04-14_12h22.00.699,Flanker Compatibility Task,,2026.1.1,119.16564981454972,2026-04-14 12h22.00.999747 +0800
4,diamond,incong,-10,l,1,135,135,0,l,1,2.3081636000424623,None,,,,,0,135,135,181,238.92262909997953,,,,,,,,238.9174042000086,239.4178659999743,241.7306532000075,,,,,,,,,,l,1,2.3081636000424623,None,,,,,,p003,2026-04-14_12h22.00.699,Flanker Compatibility Task,,2026.1.1,119.16564981454972,2026-04-14 12h22.00.999747 +0800
4,diamond,cong,10,l,0,136,136,0,l,1,0.8907145999837667,None,,,,,0,136,136,174,241.7390794000239,,,,,,,,241.7322632999858,242.22684770001797,243.12340410001343,,,,,,,,,,l,1,0.8907145999837667,None,,,,,,p003,2026-04-14_12h22.00.699,Flanker Compatibility Task,,2026.1.1,119.16564981454972,2026-04-14 12h22.00.999747 +0800
2,square,incong,-10,a,3,137,137,0,a,1,0.6193672000081278,None,,,,,0,137,137,63,243.1306223999709,,,,,,,,243.12471709999954,243.62558669998543,244.2480213,,,,,,,,,,a,1,0.6193672000081278,None,,,,,,p003,2026-04-14_12h22.00.699,Flanker Compatibility Task,,2026.1.1,119.16564981454972,2026-04-14 12h22.00.999747 +0800
1,square,incong,10,a,5,138,138,0,a,1,0.4506218,None,,,,,0,138,138,23,244.2547059999779,,,,,,,,244.249273,244.74234330002218,245.1980985000264,,,,,,,,,,a,1,0.4506218,None,,,,,,p003,2026-04-14_12h22.00.699,Flanker Compatibility Task,,2026.1.1,119.16564981454972,2026-04-14 12h22.00.999747 +0800
1,diamond,cong,10,l,2,139,139,0,l,1,0.6300723000313155,None,,,,,0,139,139,32,245.20457030000398,,,,,,,,245.19937360001495,245.6997744999826,246.33799029997317,,,,,,,,,,l,1,0.6300723000313155,None,,,,,,p003,2026-04-14_12h22.00.699,Flanker Compatibility Task,,2026.1.1,119.16564981454972,2026-04-14 12h22.00.999747 +0800
3,square,incong,-10,a,0,140,140,0,a,1,0.5352848999900743,None,,,,,0,140,140,108,246.34571929997765,,,,,,,,246.3393949000165,246.83251390000805,247.3721174999955,,,,,,,,,,a,1,0.5352848999900743,None,,,,,,p003,2026-04-14_12h22.00.699,Flanker Compatibility Task,,2026.1.1,119.16564981454972,2026-04-14 12h22.00.999747 +0800
4,square,cong,10,a,2,141,141,0,a,1,2.447954499977641,None,,,,,0,141,141,152,247.37885669997195,,,,,,,,247.3736267000204,247.8684206,250.32133950002026,,,,,,,,,,a,1,2.447954499977641,None,,,,,,p003,2026-04-14_12h22.00.699,Flanker Compatibility Task,,2026.1.1,119.16564981454972,2026-04-14 12h22.00.999747 +0800
4,square,incong,10,a,3,142,142,0,a,1,0.9210530999698676,None,,,,,0,142,142,165,250.32837429997744,,,,,,,,250.32291589997476,250.81686000002082,251.7387426000205,,,,,,,,,,a,1,0.9210530999698676,None,,,,,,p003,2026-04-14_12h22.00.699,Flanker Compatibility Task,,2026.1.1,119.16564981454972,2026-04-14 12h22.00.999747 +0800
3,square,cong,10,a,1,143,143,0,a,1,0.5270721,None,,,,,0,143,143,103,251.74451569997473,,,,,,,,251.74016149999807,252.24065930000506,252.77003020001575,,,,,,,,,,a,1,0.5270721,None,,,,,,p003,2026-04-14_12h22.00.699,Flanker Compatibility Task,,2026.1.1,119.16564981454972,2026-04-14 12h22.00.999747 +0800
3,diamond,cong,-10,l,4,144,144,0,l,1,1.0393927000113763,None,,,,,0,144,144,124,252.77767189999577,,,,,,,,252.7714223000221,253.26560109999264,254.31177670002216,,,,,,,,,,l,1,1.0393927000113763,None,,,,,,p003,2026-04-14_12h22.00.699,Flanker Compatibility Task,,2026.1.1,119.16564981454972,2026-04-14 12h22.00.999747 +0800
1,diamond,cong,-10,l,0,145,145,0,l,1,0.6039588000276126,None,,,,,0,145,145,24,254.31986160000088,,,,,,,,254.31296299997484,254.80563120002626,255.41089940001257,,,,,,,,,,l,1,0.6039588000276126,None,,,,,,p003,2026-04-14_12h22.00.699,Flanker Compatibility Task,,2026.1.1,119.16564981454972,2026-04-14 12h22.00.999747 +0800
3,square,cong,10,a,5,146,146,0,a,1,1.5077202999964356,None,,,,,0,146,146,107,255.41832250001607,,,,,,,,255.41233740001917,255.90605220000725,257.41911429999163,,,,,,,,,,a,1,1.5077202999964356,None,,,,,,p003,2026-04-14_12h22.00.699,Flanker Compatibility Task,,2026.1.1,119.16564981454972,2026-04-14 12h22.00.999747 +0800
2,diamond,incong,-10,l,5,147,147,0,l,1,0.6528873999486677,None,,,,,0,147,147,89,257.4268890999956,,,,,,,,257.4203415000229,257.91299410001375,258.5686618000036,,,,,,,,,,l,1,0.6528873999486677,None,,,,,,p003,2026-04-14_12h22.00.699,Flanker Compatibility Task,,2026.1.1,119.16564981454972,2026-04-14 12h22.00.999747 +0800
4,diamond,cong,-10,l,5,148,148,0,l,1,1.517818399996031,None,,,,,0,148,148,173,258.57608590001473,,,,,,,,258.57040760002565,259.0643729000003,260.58449759997893,,,,,,,,,,l,1,1.517818399996031,None,,,,,,p003,2026-04-14_12h22.00.699,Flanker Compatibility Task,,2026.1.1,119.16564981454972,2026-04-14 12h22.00.999747 +0800
1,diamond,incong,10,l,4,149,149,0,l,1,0.5843243999988772,None,,,,,0,149,149,46,260.59229010000126,,,,,,,,260.58576220000396,261.0803487999947,261.6687304999796,,,,,,,,,,l,1,0.5843243999988772,None,,,,,,p003,2026-04-14_12h22.00.699,Flanker Compatibility Task,,2026.1.1,119.16564981454972,2026-04-14 12h22.00.999747 +0800
1,diamond,cong,10,l,3,150,150,0,l,1,0.5080889000091702,None,,,,,0,150,150,33,261.6754539000103,,,,,,,,261.6699942999985,262.1628665999742,262.6756261999835,,,,,,,,,,l,1,0.5080889000091702,None,,,,,,p003,2026-04-14_12h22.00.699,Flanker Compatibility Task,,2026.1.1,119.16564981454972,2026-04-14 12h22.00.999747 +0800
1,diamond,incong,-10,l,2,151,151,0,l,1,0.6000198999536224,None,,,,,0,151,151,38,262.68340649997117,,,,,,,,262.6764633,263.17039189999923,263.77584529999876,,,,,,,,,,l,1,0.6000198999536224,None,,,,,,p003,2026-04-14_12h22.00.699,Flanker Compatibility Task,,2026.1.1,119.16564981454972,2026-04-14 12h22.00.999747 +0800
1,square,cong,-10,a,0,152,152,0,a,1,0.5130891000153497,None,,,,,0,152,152,0,263.78323870000895,,,,,,,,263.7770277999807,264.26969669997925,264.784318,,,,,,,,,,a,1,0.5130891000153497,None,,,,,,p003,2026-04-14_12h22.00.699,Flanker Compatibility Task,,2026.1.1,119.16564981454972,2026-04-14 12h22.00.999747 +0800
3,diamond,incong,10,l,0,153,153,0,l,1,0.8811125000356697,None,,,,,0,153,153,138,264.7918805,,,,,,,,264.7858134,265.2851803000085,266.1674511000165,,,,,,,,,,l,1,0.8811125000356697,None,,,,,,p003,2026-04-14_12h22.00.699,Flanker Compatibility Task,,2026.1.1,119.16564981454972,2026-04-14 12h22.00.999747 +0800
2,square,cong,-10,a,5,154,154,0,a,1,0.5602293999982066,None,,,,,0,154,154,53,266.1741416999721,,,,,,,,266.1687654000125,266.66781050001737,267.23324269999284,,,,,,,,,,a,1,0.5602293999982066,None,,,,,,p003,2026-04-14_12h22.00.699,Flanker Compatibility Task,,2026.1.1,119.16564981454972,2026-04-14 12h22.00.999747 +0800
4,diamond,cong,10,l,1,155,155,0,l,1,0.7991087999544106,None,,,,,0,155,155,175,267.2411600999767,,,,,,,,267.23466800001916,267.72946190001676,268.5336127000046,,,,,,,,,,l,1,0.7991087999544106,None,,,,,,p003,2026-04-14_12h22.00.699,Flanker Compatibility Task,,2026.1.1,119.16564981454972,2026-04-14 12h22.00.999747 +0800
1,square,incong,10,a,2,156,156,0,a,1,0.6208379000308923,None,,,,,0,156,156,20,268.5402945000096,,,,,,,,268.53523219999624,269.03692969999975,269.65862080000807,,,,,,,,,,a,1,0.6208379000308923,None,,,,,,p003,2026-04-14_12h22.00.699,Flanker Compatibility Task,,2026.1.1,119.16564981454972,2026-04-14 12h22.00.999747 +0800
1,diamond,incong,10,l,5,157,157,0,l,1,0.42886990000260994,None,,,,,0,157,157,47,269.66498709999723,,,,,,,,269.6598804,270.1526407,270.5823057999951,,,,,,,,,,l,1,0.42886990000260994,None,,,,,,p003,2026-04-14_12h22.00.699,Flanker Compatibility Task,,2026.1.1,119.16564981454972,2026-04-14 12h22.00.999747 +0800
4,diamond,cong,-10,l,3,158,158,0,l,1,1.578598599997349,None,,,,,0,158,158,171,270.58989349997137,,,,,,,,270.5836965999915,271.0784244000097,272.66485170001397,,,,,,,,,,l,1,1.578598599997349,None,,,,,,p003,2026-04-14_12h22.00.699,Flanker Compatibility Task,,2026.1.1,119.16564981454972,2026-04-14 12h22.00.999747 +0800
4,square,incong,-10,a,3,159,159,0,a,1,0.9833918000222184,None,,,,,0,159,159,159,272.67265780002344,,,,,,,,272.66635239997413,273.15737690002425,274.14153740002075,,,,,,,,,,a,1,0.9833918000222184,None,,,,,,p003,2026-04-14_12h22.00.699,Flanker Compatibility Task,,2026.1.1,119.16564981454972,2026-04-14 12h22.00.999747 +0800
1,diamond,cong,10,l,5,160,160,0,l,1,0.5765298000187613,None,,,,,0,160,160,35,274.14732689998345,,,,,,,,274.1427695999737,274.64114899997367,275.2228195000207,,,,,,,,,,l,1,0.5765298000187613,None,,,,,,p003,2026-04-14_12h22.00.699,Flanker Compatibility Task,,2026.1.1,119.16564981454972,2026-04-14 12h22.00.999747 +0800
2,square,incong,10,a,5,161,161,0,a,1,0.6625302999746054,None,,,,,0,161,161,71,275.2314699999988,,,,,,,,275.2240417000139,275.7167702000006,276.38075010001194,,,,,,,,,,a,1,0.6625302999746054,None,,,,,,p003,2026-04-14_12h22.00.699,Flanker Compatibility Task,,2026.1.1,119.16564981454972,2026-04-14 12h22.00.999747 +0800
2,square,incong,10,a,0,162,162,0,a,1,0.5001113000325859,None,,,,,0,162,162,66,276.3881786999991,,,,,,,,276.3821127000265,276.8735619999934,277.37437560001854,,,,,,,,,,a,1,0.5001113000325859,None,,,,,,p003,2026-04-14_12h22.00.699,Flanker Compatibility Task,,2026.1.1,119.16564981454972,2026-04-14 12h22.00.999747 +0800
4,diamond,incong,10,l,1,163,163,0,l,1,1.4079570999601856,None,,,,,0,163,163,187,277.37990529998206,,,,,,,,277.37588449998293,277.8757530999719,279.2882793999743,,,,,,,,,,l,1,1.4079570999601856,None,,,,,,p003,2026-04-14_12h22.00.699,Flanker Compatibility Task,,2026.1.1,119.16564981454972,2026-04-14 12h22.00.999747 +0800
2,square,incong,10,a,2,164,164,0,a,1,0.5901723999995738,None,,,,,0,164,164,68,279.2969668000005,,,,,,,,279.2895137000014,279.78322270000353,280.3794991999748,,,,,,,,,,a,1,0.5901723999995738,None,,,,,,p003,2026-04-14_12h22.00.699,Flanker Compatibility Task,,2026.1.1,119.16564981454972,2026-04-14 12h22.00.999747 +0800
4,diamond,incong,-10,l,5,165,165,0,l,1,1.4027467999840155,None,,,,,0,165,165,185,280.38794190000044,,,,,,,,280.3809352000244,280.8735354000237,282.28015730000334,,,,,,,,,,l,1,1.4027467999840155,None,,,,,,p003,2026-04-14_12h22.00.699,Flanker Compatibility Task,,2026.1.1,119.16564981454972,2026-04-14 12h22.00.999747 +0800
2,square,cong,10,a,0,166,166,0,a,1,0.42527499998686835,None,,,,,0,166,166,54,282.28736590000335,,,,,,,,282.28149309998844,282.7803887000191,283.2134370999993,,,,,,,,,,a,1,0.42527499998686835,None,,,,,,p003,2026-04-14_12h22.00.699,Flanker Compatibility Task,,2026.1.1,119.16564981454972,2026-04-14 12h22.00.999747 +0800
2,square,cong,10,a,2,167,167,0,a,1,0.5670449999743141,None,,,,,0,167,167,56,283.2241566000157,,,,,,,,283.2168323000078,283.7116698999889,284.27996870002244,,,,,,,,,,a,1,0.5670449999743141,None,,,,,,p003,2026-04-14_12h22.00.699,Flanker Compatibility Task,,2026.1.1,119.16564981454972,2026-04-14 12h22.00.999747 +0800
1,diamond,incong,-10,l,3,168,168,0,l,1,0.7150738000054844,None,,,,,0,168,168,39,284.2861453000223,,,,,,,,284.2812661000062,284.7742347000167,285.4951211999869,,,,,,,,,,l,1,0.7150738000054844,None,,,,,,p003,2026-04-14_12h22.00.699,Flanker Compatibility Task,,2026.1.1,119.16564981454972,2026-04-14 12h22.00.999747 +0800
4,square,incong,-10,a,4,169,169,0,a,1,2.438658299972303,None,,,,,0,169,169,160,285.50337370001944,,,,,,,,285.4965513999923,285.99134439998306,288.4352981999982,,,,,,,,,,a,1,2.438658299972303,None,,,,,,p003,2026-04-14_12h22.00.699,Flanker Compatibility Task,,2026.1.1,119.16564981454972,2026-04-14 12h22.00.999747 +0800
1,square,cong,-10,a,3,170,170,0,a,1,0.5982767999521457,None,,,,,0,170,170,3,288.4418218,,,,,,,,288.4365849000169,288.9291775000165,289.5351295999717,,,,,,,,,,a,1,0.5982767999521457,None,,,,,,p003,2026-04-14_12h22.00.699,Flanker Compatibility Task,,2026.1.1,119.16564981454972,2026-04-14 12h22.00.999747 +0800
1,square,incong,-10,a,5,171,171,0,a,1,0.4620172999566421,None,,,,,0,171,171,17,289.5420679,,,,,,,,289.53638689999934,290.02919889998157,290.50049690000014,,,,,,,,,,a,1,0.4620172999566421,None,,,,,,p003,2026-04-14_12h22.00.699,Flanker Compatibility Task,,2026.1.1,119.16564981454972,2026-04-14 12h22.00.999747 +0800
3,diamond,cong,10,l,3,172,172,0,l,1,1.029935900005512,None,,,,,0,172,172,129,290.5079868999892,,,,,,,,290.50184280000394,291.0015577999875,292.0342980999849,,,,,,,,,,l,1,1.029935900005512,None,,,,,,p003,2026-04-14_12h22.00.699,Flanker Compatibility Task,,2026.1.1,119.16564981454972,2026-04-14 12h22.00.999747 +0800
2,diamond,incong,10,l,1,173,173,0,l,1,0.6528322,None,,,,,0,173,173,91,292.04077590000816,,,,,,,,292.03563940001186,292.5370920000132,293.19230880000396,,,,,,,,,,l,1,0.6528322,None,,,,,,p003,2026-04-14_12h22.00.699,Flanker Compatibility Task,,2026.1.1,119.16564981454972,2026-04-14 12h22.00.999747 +0800
2,diamond,cong,10,l,0,174,174,0,l,1,0.4533038000226952,None,,,,,0,174,174,78,293.19895960000576,,,,,,,,293.1932392999879,293.6956726000062,294.1503138000262,,,,,,,,,,l,1,0.4533038000226952,None,,,,,,p003,2026-04-14_12h22.00.699,Flanker Compatibility Task,,2026.1.1,119.16564981454972,2026-04-14 12h22.00.999747 +0800
1,diamond,cong,-10,l,3,175,175,0,l,1,0.5578823999967426,None,,,,,0,175,175,27,294.15764879999915,,,,,,,,294.15159179997863,294.6442273000139,295.2084575999761,,,,,,,,,,l,1,0.5578823999967426,None,,,,,,p003,2026-04-14_12h22.00.699,Flanker Compatibility Task,,2026.1.1,119.16564981454972,2026-04-14 12h22.00.999747 +0800
2,square,cong,-10,a,1,176,176,0,a,1,0.6105952000361867,None,,,,,0,176,176,49,295.2155735999695,,,,,,,,295.2097608,295.70336240000324,296.31576530000893,,,,,,,,,,a,1,0.6105952000361867,None,,,,,,p003,2026-04-14_12h22.00.699,Flanker Compatibility Task,,2026.1.1,119.16564981454972,2026-04-14 12h22.00.999747 +0800
2,diamond,cong,-10,l,3,177,177,0,l,1,0.7205489999614656,None,,,,,0,177,177,75,296.32302489998983,,,,,,,,296.31671220000135,296.8180457999697,297.54070190002676,,,,,,,,,,l,1,0.7205489999614656,None,,,,,,p003,2026-04-14_12h22.00.699,Flanker Compatibility Task,,2026.1.1,119.16564981454972,2026-04-14 12h22.00.999747 +0800
3,diamond,incong,10,l,4,178,178,0,l,1,0.7661543000140227,None,,,,,0,178,178,142,297.54774730000645,,,,,,,,297.5421337999869,298.03428189997794,298.8065389000112,,,,,,,,,,l,1,0.7661543000140227,None,,,,,,p003,2026-04-14_12h22.00.699,Flanker Compatibility Task,,2026.1.1,119.16564981454972,2026-04-14 12h22.00.999747 +0800
1,diamond,incong,10,l,3,179,179,0,l,1,0.44520410004770383,None,,,,,0,179,179,45,298.81424370000605,,,,,,,,298.80775149998954,299.29919769999105,299.7493647999945,,,,,,,,,,l,1,0.44520410004770383,None,,,,,,p003,2026-04-14_12h22.00.699,Flanker Compatibility Task,,2026.1.1,119.16564981454972,2026-04-14 12h22.00.999747 +0800
3,diamond,incong,-10,l,1,180,180,0,l,1,1.1121042000013404,None,,,,,0,180,180,133,299.7557965,,,,,,,,299.75080480001634,300.2491767000174,301.36414139997214,,,,,,,,,,l,1,1.1121042000013404,None,,,,,,p003,2026-04-14_12h22.00.699,Flanker Compatibility Task,,2026.1.1,119.16564981454972,2026-04-14 12h22.00.999747 +0800
3,square,incong,-10,a,2,181,181,0,a,1,1.5785371999954805,None,,,,,0,181,181,110,301.3723095000023,,,,,,,,301.36556960002054,301.8580244000186,303.4388252000208,,,,,,,,,,a,1,1.5785371999954805,None,,,,,,p003,2026-04-14_12h22.00.699,Flanker Compatibility Task,,2026.1.1,119.16564981454972,2026-04-14 12h22.00.999747 +0800
1,square,cong,10,a,5,182,182,0,a,1,0.4565849000355229,None,,,,,0,182,182,11,303.44634700001916,,,,,,,,303.4396993999835,303.93432579998625,304.39660689997254,,,,,,,,,,a,1,0.4565849000355229,None,,,,,,p003,2026-04-14_12h22.00.699,Flanker Compatibility Task,,2026.1.1,119.16564981454972,2026-04-14 12h22.00.999747 +0800
2,square,incong,-10,a,4,183,183,0,a,1,1.0050802000332624,None,,,,,0,183,183,64,304.40559530002065,,,,,,,,304.3978229999775,304.88863629999105,305.89729659998557,,,,,,,,,,a,1,1.0050802000332624,None,,,,,,p003,2026-04-14_12h22.00.699,Flanker Compatibility Task,,2026.1.1,119.16564981454972,2026-04-14 12h22.00.999747 +0800
4,square,cong,10,a,5,184,184,0,a,1,1.3978304999764077,None,,,,,0,184,184,155,305.90397949999897,,,,,,,,305.8988236999721,306.39976850000676,307.7985180999967,,,,,,,,,,a,1,1.3978304999764077,None,,,,,,p003,2026-04-14_12h22.00.699,Flanker Compatibility Task,,2026.1.1,119.16564981454972,2026-04-14 12h22.00.999747 +0800
1,diamond,cong,10,l,4,185,185,0,l,1,0.6252244000206701,None,,,,,0,185,185,34,307.8038972999784,,,,,,,,307.7997895000153,308.29829469998367,308.92894100002013,,,,,,,,,,l,1,0.6252244000206701,None,,,,,,p003,2026-04-14_12h22.00.699,Flanker Compatibility Task,,2026.1.1,119.16564981454972,2026-04-14 12h22.00.999747 +0800
1,square,incong,10,a,0,186,186,0,a,1,0.5383751000044867,None,,,,,0,186,186,18,308.9365048999898,,,,,,,,308.92983300000196,309.4230436999933,309.96349310001824,,,,,,,,,,a,1,0.5383751000044867,None,,,,,,p003,2026-04-14_12h22.00.699,Flanker Compatibility Task,,2026.1.1,119.16564981454972,2026-04-14 12h22.00.999747 +0800
1,square,cong,10,a,0,187,187,0,a,1,0.4757597000570968,None,,,,,0,187,187,6,309.96968829998514,,,,,,,,309.9647339999792,310.4643521999824,310.94652920000954,,,,,,,,,,a,1,0.4757597000570968,None,,,,,,p003,2026-04-14_12h22.00.699,Flanker Compatibility Task,,2026.1.1,119.16564981454972,2026-04-14 12h22.00.999747 +0800
4,square,cong,10,a,0,188,188,0,a,1,0.5881426999694668,None,,,,,0,188,188,150,310.95314070000313,,,,,,,,310.94787530001486,311.4496570000192,312.0449817,,,,,,,,,,a,1,0.5881426999694668,None,,,,,,p003,2026-04-14_12h22.00.699,Flanker Compatibility Task,,2026.1.1,119.16564981454972,2026-04-14 12h22.00.999747 +0800
3,square,cong,10,a,2,189,189,0,a,1,1.2384745000163093,None,,,,,0,189,189,104,312.05379480001284,,,,,,,,312.0463227999862,312.54030240001157,313.7863854999887,,,,,,,,,,a,1,1.2384745000163093,None,,,,,,p003,2026-04-14_12h22.00.699,Flanker Compatibility Task,,2026.1.1,119.16564981454972,2026-04-14 12h22.00.999747 +0800
2,square,cong,10,a,3,190,190,0,a,1,0.6334973000339232,None,,,,,0,190,190,57,313.79417529999046,,,,,,,,313.78730770002585,314.28110879997257,314.92106319998857,,,,,,,,,,a,1,0.6334973000339232,None,,,,,,p003,2026-04-14_12h22.00.699,Flanker Compatibility Task,,2026.1.1,119.16564981454972,2026-04-14 12h22.00.999747 +0800
3,square,cong,-10,a,1,191,191,0,a,1,0.6970512999687344,None,,,,,0,191,191,97,314.92703459999757,,,,,,,,314.9224387999857,315.4182383000152,316.11973450001096,,,,,,,,,,a,1,0.6970512999687344,None,,,,,,p003,2026-04-14_12h22.00.699,Flanker Compatibility Task,,2026.1.1,119.16564981454972,2026-04-14 12h22.00.999747 +0800
,,,,,,,,,,,,,,,,,,,,,,,,,,,,,,,,,,,,,,,,,,,,,316.1199389999965,321.8518306000042,space,5.722949699964374,None,p003,2026-04-14_12h22.00.699,Flanker Compatibility Task,,2026.1.1,119.16564981454972,2026-04-14 12h22.00.999747 +0800
