difficulty,target_type,compatibility,dist_pos_x,ans,target_idx,thisN,thisTrialN,thisRepN,Anskey.keys,Anskey.corr,Anskey.rt,Anskey.duration,Prac_Loop.thisRepN,Prac_Loop.thisTrialN,Prac_Loop.thisN,Prac_Loop.thisIndex,Trials_Loop.thisRepN,Trials_Loop.thisTrialN,Trials_Loop.thisN,Trials_Loop.thisIndex,thisRow.t,notes,piloting,Intro.started,Intro.stopped,Intro_keyresp.keys,Intro_keyresp.rt,Intro_keyresp.duration,Trial_Routine.started,Anskey.started,Trial_Routine.stopped,Prac_Loop.Anskey.keys,Prac_Loop.Anskey.corr,Prac_Loop.Anskey.rt,Prac_Loop.Anskey.duration,Ready.started,Ready.stopped,Ready_keyresp.keys,Ready_keyresp.rt,Ready_keyresp.duration,Trials_Loop.Anskey.keys,Trials_Loop.Anskey.corr,Trials_Loop.Anskey.rt,Trials_Loop.Anskey.duration,ThankYou.started,ThankYou.stopped,Thanks_keyresp.keys,Thanks_keyresp.rt,Thanks_keyresp.duration,participant,date,expName,expVersion,psychopyVersion,frameRate,expStart
,,,,,,,,,,,,,,,,,,,,,,,FALSE,0.0078503,2.783305899996776,space,2.277562899980694,None,,,,,,,,,,,,,,,,,,,,,,p004,2026-04-14_12h31.06.147,Flanker Compatibility Task,,2026.1.1,120.32955863917877,2026-04-14 12h31.06.440388 +0800
1,diamond,incong,-10,l,5,0,0,0,l,1,1.0222104000276886,None,0,0,0,3,,,,,2.8084010999882594,,,,,,,,2.798739599995315,3.2792247000033967,4.309368200018071,l,1,1.0222104000276886,None,,,,,,,,,,,,,,,p004,2026-04-14_12h31.06.147,Flanker Compatibility Task,,2026.1.1,120.32955863917877,2026-04-14 12h31.06.440388 +0800
3,diamond,cong,10,l,1,1,1,0,l,1,1.2920153999584727,None,0,1,1,10,,,,,4.3157273000106215,,,,,,,,4.310810199996922,4.811923100030981,6.1082466000225395,l,1,1.2920153999584727,None,,,,,,,,,,,,,,,p004,2026-04-14_12h31.06.147,Flanker Compatibility Task,,2026.1.1,120.32955863917877,2026-04-14 12h31.06.440388 +0800
4,square,incong,-10,a,1,2,2,0,a,1,1.0731806000112556,None,0,2,2,13,,,,,6.115866200008895,,,,,,,,6.109817199991085,6.602987700025551,7.682442800025456,a,1,1.0731806000112556,None,,,,,,,,,,,,,,,p004,2026-04-14_12h31.06.147,Flanker Compatibility Task,,2026.1.1,120.32955863917877,2026-04-14 12h31.06.440388 +0800
3,square,incong,10,a,5,3,3,0,a,1,1.0553293999982998,None,0,3,3,9,,,,,7.690138700010721,,,,,,,,7.683780500025023,8.178200800030027,9.241017599997576,a,1,1.0553293999982998,None,,,,,,,,,,,,,,,p004,2026-04-14_12h31.06.147,Flanker Compatibility Task,,2026.1.1,120.32955863917877,2026-04-14 12h31.06.440388 +0800
4,diamond,cong,-10,l,4,4,4,0,l,1,1.4586745999986306,None,0,4,4,14,,,,,9.2481216,,,,,,,,9.242595900024753,9.7365143,11.197818999993615,l,1,1.4586745999986306,None,,,,,,,,,,,,,,,p004,2026-04-14_12h31.06.147,Flanker Compatibility Task,,2026.1.1,120.32955863917877,2026-04-14 12h31.06.440388 +0800
1,square,incong,10,a,3,5,5,0,a,1,0.9011785999755375,None,0,5,5,1,,,,,11.205520900024567,,,,,,,,11.199017200036906,11.692445099994075,12.598560900019947,a,1,0.9011785999755375,None,,,,,,,,,,,,,,,p004,2026-04-14_12h31.06.147,Flanker Compatibility Task,,2026.1.1,120.32955863917877,2026-04-14 12h31.06.440388 +0800
2,diamond,incong,10,l,0,6,6,0,l,1,0.8936432999907993,None,0,6,6,7,,,,,12.605518600030337,,,,,,,,12.59987870004261,13.099005,13.997561700001825,l,1,0.8936432999907993,None,,,,,,,,,,,,,,,p004,2026-04-14_12h31.06.147,Flanker Compatibility Task,,2026.1.1,120.32955863917877,2026-04-14 12h31.06.440388 +0800
3,diamond,incong,-10,l,4,7,7,0,l,1,1.1471042000339366,None,0,7,7,11,,,,,14.004858900036197,,,,,,,,13.998969000007492,14.492266400018707,15.647059300041292,l,1,1.1471042000339366,None,,,,,,,,,,,,,,,p004,2026-04-14_12h31.06.147,Flanker Compatibility Task,,2026.1.1,120.32955863917877,2026-04-14 12h31.06.440388 +0800
1,square,cong,-10,a,1,8,8,0,a,1,0.6023703999817371,None,0,8,8,0,,,,,15.65494730003411,,,,,,,,15.648230299993884,16.14107840001816,16.74687690002611,a,1,0.6023703999817371,None,,,,,,,,,,,,,,,p004,2026-04-14_12h31.06.147,Flanker Compatibility Task,,2026.1.1,120.32955863917877,2026-04-14 12h31.06.440388 +0800
3,square,cong,-10,a,1,9,9,0,a,1,0.7712425999925472,None,0,9,9,8,,,,,16.754219499998726,,,,,,,,16.747950099990703,17.24191660003271,18.021257999993395,a,1,0.7712425999925472,None,,,,,,,,,,,,,,,p004,2026-04-14_12h31.06.147,Flanker Compatibility Task,,2026.1.1,120.32955863917877,2026-04-14 12h31.06.440388 +0800
1,diamond,cong,10,l,0,10,10,0,l,1,0.6845998999779113,None,0,10,10,2,,,,,18.029202300007455,,,,,,,,18.022390400001314,18.515638899989426,19.205436800024472,l,1,0.6845998999779113,None,,,,,,,,,,,,,,,p004,2026-04-14_12h31.06.147,Flanker Compatibility Task,,2026.1.1,120.32955863917877,2026-04-14 12h31.06.440388 +0800
4,diamond,incong,10,l,2,11,11,0,l,1,1.2623531999997795,None,0,11,11,15,,,,,19.211797,,,,,,,,19.206997300032526,19.70747580000898,20.971704500028864,l,1,1.2623531999997795,None,,,,,,,,,,,,,,,p004,2026-04-14_12h31.06.147,Flanker Compatibility Task,,2026.1.1,120.32955863917877,2026-04-14 12h31.06.440388 +0800
2,square,incong,-10,a,2,12,12,0,a,1,0.7429129999945872,None,0,12,12,5,,,,,20.977983799995854,,,,,,,,20.973055400012527,21.471123000024818,22.22106569999596,a,1,0.7429129999945872,None,,,,,,,,,,,,,,,p004,2026-04-14_12h31.06.147,Flanker Compatibility Task,,2026.1.1,120.32955863917877,2026-04-14 12h31.06.440388 +0800
2,diamond,cong,-10,l,3,13,13,0,l,1,0.8643425999907777,None,0,13,13,6,,,,,22.227000200015027,,,,,,,,22.22251779999351,22.720837500004563,23.5869618,l,1,0.8643425999907777,None,,,,,,,,,,,,,,,p004,2026-04-14_12h31.06.147,Flanker Compatibility Task,,2026.1.1,120.32955863917877,2026-04-14 12h31.06.440388 +0800
2,square,cong,10,a,5,14,14,0,a,1,0.6326285999966785,None,0,14,14,4,,,,,23.593573099991772,,,,,,,,23.588279900024645,24.08135490003042,24.71910009998828,a,1,0.6326285999966785,None,,,,,,,,,,,,,,,p004,2026-04-14_12h31.06.147,Flanker Compatibility Task,,2026.1.1,120.32955863917877,2026-04-14 12h31.06.440388 +0800
4,square,cong,10,a,5,15,15,0,a,1,0.6744036999880336,None,0,15,15,12,,,,,24.726596800028346,,,,,,,,24.72060140001122,25.21388029999798,25.89344060001895,a,1,0.6744036999880336,None,,,,,,,,,,,,,,,p004,2026-04-14_12h31.06.147,Flanker Compatibility Task,,2026.1.1,120.32955863917877,2026-04-14 12h31.06.440388 +0800
,,,,,,,,,,,,,,,,,,,,,,,,,,,,,,,,,,,,25.89362789998995,32.00839380000252,space,5.6222988000372425,None,,,,,,,,,,p004,2026-04-14_12h31.06.147,Flanker Compatibility Task,,2026.1.1,120.32955863917877,2026-04-14 12h31.06.440388 +0800
1,diamond,cong,-10,l,4,0,0,0,l,1,0.6906488999957219,None,,,,,0,0,0,28,32.0498664,,,,,,,,32.04593520000344,32.50371050002286,33.20073630003026,,,,,,,,,,l,1,0.6906488999957219,None,,,,,,p004,2026-04-14_12h31.06.147,Flanker Compatibility Task,,2026.1.1,120.32955863917877,2026-04-14 12h31.06.440388 +0800
2,square,cong,-10,a,0,1,1,0,a,1,0.5454221999971196,None,,,,,0,1,1,48,33.208347200008575,,,,,,,,33.202030699991155,33.69615780003369,34.249542200006545,,,,,,,,,,a,1,0.5454221999971196,None,,,,,,p004,2026-04-14_12h31.06.147,Flanker Compatibility Task,,2026.1.1,120.32955863917877,2026-04-14 12h31.06.440388 +0800
2,diamond,incong,-10,l,5,2,2,0,l,1,0.6587429000064731,None,,,,,0,2,2,89,34.2572296,,,,,,,,34.25059150002198,34.7442141,35.40819680003915,,,,,,,,,,l,1,0.6587429000064731,None,,,,,,p004,2026-04-14_12h31.06.147,Flanker Compatibility Task,,2026.1.1,120.32955863917877,2026-04-14 12h31.06.440388 +0800
3,diamond,cong,10,l,5,3,3,0,l,1,0.5853817999595776,None,,,,,0,3,3,131,35.41551280004205,,,,,,,,35.40983140002936,35.905025899992324,36.49112670001341,,,,,,,,,,l,1,0.5853817999595776,None,,,,,,p004,2026-04-14_12h31.06.147,Flanker Compatibility Task,,2026.1.1,120.32955863917877,2026-04-14 12h31.06.440388 +0800
2,square,incong,10,a,1,4,4,0,a,1,0.5718218000256456,None,,,,,0,4,4,67,36.49876550002955,,,,,,,,36.49221860000398,36.98629600001732,37.558749500021804,,,,,,,,,,a,1,0.5718218000256456,None,,,,,,p004,2026-04-14_12h31.06.147,Flanker Compatibility Task,,2026.1.1,120.32955863917877,2026-04-14 12h31.06.440388 +0800
2,diamond,incong,-10,l,1,5,5,0,l,1,0.5800348999910057,None,,,,,0,5,5,85,37.565732799994294,,,,,,,,37.55998550000368,38.06092140002875,38.64212630002294,,,,,,,,,,l,1,0.5800348999910057,None,,,,,,p004,2026-04-14_12h31.06.147,Flanker Compatibility Task,,2026.1.1,120.32955863917877,2026-04-14 12h31.06.440388 +0800
4,diamond,incong,10,l,2,6,6,0,l,1,1.0801741000032052,None,,,,,0,6,6,188,38.649002099991776,,,,,,,,38.64376499998616,39.142398299998604,40.22541559999809,,,,,,,,,,l,1,1.0801741000032052,None,,,,,,p004,2026-04-14_12h31.06.147,Flanker Compatibility Task,,2026.1.1,120.32955863917877,2026-04-14 12h31.06.440388 +0800
1,diamond,cong,10,l,3,7,7,0,a,0,0.8991028000018559,None,,,,,0,7,7,33,40.232104299997445,,,,,,,,40.226735300035216,40.72720840002876,41.632522200001404,,,,,,,,,,a,0,0.8991028000018559,None,,,,,,p004,2026-04-14_12h31.06.147,Flanker Compatibility Task,,2026.1.1,120.32955863917877,2026-04-14 12h31.06.440388 +0800
2,square,cong,10,a,0,8,8,0,a,1,0.8244438999681734,None,,,,,0,8,8,54,41.639745599997696,,,,,,,,41.63381989998743,42.126707200019155,42.9574116,,,,,,,,,,a,1,0.8244438999681734,None,,,,,,p004,2026-04-14_12h31.06.147,Flanker Compatibility Task,,2026.1.1,120.32955863917877,2026-04-14 12h31.06.440388 +0800
1,diamond,incong,-10,l,0,9,9,0,l,1,1.0414232999901287,None,,,,,0,9,9,36,42.964625900029205,,,,,,,,42.95871770003578,43.461716199992225,44.50659810000798,,,,,,,,,,l,1,1.0414232999901287,None,,,,,,p004,2026-04-14_12h31.06.147,Flanker Compatibility Task,,2026.1.1,120.32955863917877,2026-04-14 12h31.06.440388 +0800
3,square,cong,-10,a,1,10,10,0,a,1,0.7679784000501968,None,,,,,0,10,10,97,44.51408960000845,,,,,,,,44.50770700001158,45.00136450002901,45.78257580002537,,,,,,,,,,a,1,0.7679784000501968,None,,,,,,p004,2026-04-14_12h31.06.147,Flanker Compatibility Task,,2026.1.1,120.32955863917877,2026-04-14 12h31.06.440388 +0800
4,diamond,cong,10,l,1,11,11,0,l,1,0.7911445999634452,None,,,,,0,11,11,175,45.797231600037776,,,,,,,,45.78576639998937,46.28489559999434,47.08004380000057,,,,,,,,,,l,1,0.7911445999634452,None,,,,,,p004,2026-04-14_12h31.06.147,Flanker Compatibility Task,,2026.1.1,120.32955863917877,2026-04-14 12h31.06.440388 +0800
4,diamond,cong,-10,l,0,12,12,0,l,1,1.4371141000301577,None,,,,,0,12,12,168,47.08765599998878,,,,,,,,47.081656599999405,47.574419100012165,49.01360210002167,,,,,,,,,,l,1,1.4371141000301577,None,,,,,,p004,2026-04-14_12h31.06.147,Flanker Compatibility Task,,2026.1.1,120.32955863917877,2026-04-14 12h31.06.440388 +0800
1,diamond,incong,10,l,4,13,13,0,l,1,0.8883133999770507,None,,,,,0,13,13,46,49.02147540001897,,,,,,,,49.014783299993724,49.50706140004331,50.39727340004174,,,,,,,,,,l,1,0.8883133999770507,None,,,,,,p004,2026-04-14_12h31.06.147,Flanker Compatibility Task,,2026.1.1,120.32955863917877,2026-04-14 12h31.06.440388 +0800
4,square,cong,10,a,4,14,14,0,a,1,0.9012060000095516,None,,,,,0,14,14,154,50.40445140004158,,,,,,,,50.39883070002543,50.898304100031964,51.80502269999124,,,,,,,,,,a,1,0.9012060000095516,None,,,,,,p004,2026-04-14_12h31.06.147,Flanker Compatibility Task,,2026.1.1,120.32955863917877,2026-04-14 12h31.06.440388 +0800
4,diamond,cong,-10,l,5,15,15,0,l,1,0.8060760000371374,None,,,,,0,15,15,173,51.812679400027264,,,,,,,,51.80664289998822,52.30776390002575,53.12054390000412,,,,,,,,,,l,1,0.8060760000371374,None,,,,,,p004,2026-04-14_12h31.06.147,Flanker Compatibility Task,,2026.1.1,120.32955863917877,2026-04-14 12h31.06.440388 +0800
4,diamond,incong,-10,l,2,16,16,0,l,1,0.860998,None,,,,,0,16,16,182,53.128068100020755,,,,,,,,53.121985400037374,53.622153000032995,54.48732050001854,,,,,,,,,,l,1,0.860998,None,,,,,,p004,2026-04-14_12h31.06.147,Flanker Compatibility Task,,2026.1.1,120.32955863917877,2026-04-14 12h31.06.440388 +0800
3,diamond,cong,10,l,0,17,17,0,l,1,0.6166559000266716,None,,,,,0,17,17,126,54.49516960000619,,,,,,,,54.488656000001356,54.988275500014424,55.6125625,,,,,,,,,,l,1,0.6166559000266716,None,,,,,,p004,2026-04-14_12h31.06.147,Flanker Compatibility Task,,2026.1.1,120.32955863917877,2026-04-14 12h31.06.440388 +0800
3,square,incong,-10,a,2,18,18,0,a,1,0.5722666999790817,None,,,,,0,18,18,110,55.61990510002943,,,,,,,,55.61404489999404,56.11060070001986,56.687018600001466,,,,,,,,,,a,1,0.5722666999790817,None,,,,,,p004,2026-04-14_12h31.06.147,Flanker Compatibility Task,,2026.1.1,120.32955863917877,2026-04-14 12h31.06.440388 +0800
2,diamond,cong,-10,l,0,19,19,0,l,1,0.7157745000440627,None,,,,,0,19,19,72,56.694312200008426,,,,,,,,56.68827039998723,57.18811739998637,57.9107102,,,,,,,,,,l,1,0.7157745000440627,None,,,,,,p004,2026-04-14_12h31.06.147,Flanker Compatibility Task,,2026.1.1,120.32955863917877,2026-04-14 12h31.06.440388 +0800
2,square,incong,-10,a,2,20,20,0,a,1,1.1718871,None,,,,,0,20,20,62,57.91902370000025,,,,,,,,57.91212029999588,58.406138200021815,59.586466300010215,,,,,,,,,,a,1,1.1718871,None,,,,,,p004,2026-04-14_12h31.06.147,Flanker Compatibility Task,,2026.1.1,120.32955863917877,2026-04-14 12h31.06.440388 +0800
4,square,cong,-10,a,4,21,21,0,l,0,0.8460524000111036,None,,,,,0,21,21,148,59.59404280001763,,,,,,,,59.58803839999018,60.09055920003448,60.943887800036464,,,,,,,,,,l,0,0.8460524000111036,None,,,,,,p004,2026-04-14_12h31.06.147,Flanker Compatibility Task,,2026.1.1,120.32955863917877,2026-04-14 12h31.06.440388 +0800
2,diamond,incong,10,l,4,22,22,0,l,1,1.0456997000146657,None,,,,,0,22,22,94,60.95096700004069,,,,,,,,60.94495630002348,61.4477523,62.49409560003551,,,,,,,,,,l,1,1.0456997000146657,None,,,,,,p004,2026-04-14_12h31.06.147,Flanker Compatibility Task,,2026.1.1,120.32955863917877,2026-04-14 12h31.06.440388 +0800
1,square,incong,-10,a,0,23,23,0,a,1,0.5648164000012912,None,,,,,0,23,23,12,62.50057430000743,,,,,,,,62.495271200023126,62.99412530002883,63.559946199995466,,,,,,,,,,a,1,0.5648164000012912,None,,,,,,p004,2026-04-14_12h31.06.147,Flanker Compatibility Task,,2026.1.1,120.32955863917877,2026-04-14 12h31.06.440388 +0800
3,diamond,cong,-10,l,2,24,24,0,l,1,0.9247483999934047,None,,,,,0,24,24,122,63.566941700002644,,,,,,,,63.5614263,64.05561700003454,64.98414519999642,,,,,,,,,,l,1,0.9247483999934047,None,,,,,,p004,2026-04-14_12h31.06.147,Flanker Compatibility Task,,2026.1.1,120.32955863917877,2026-04-14 12h31.06.440388 +0800
1,square,cong,10,a,1,25,25,0,a,1,0.6728236999479122,None,,,,,0,25,25,7,64.99148590001278,,,,,,,,64.98520530003589,65.47865160001675,66.1589216,,,,,,,,,,a,1,0.6728236999479122,None,,,,,,p004,2026-04-14_12h31.06.147,Flanker Compatibility Task,,2026.1.1,120.32955863917877,2026-04-14 12h31.06.440388 +0800
3,diamond,incong,10,l,0,26,26,0,l,1,0.7414381999988109,None,,,,,0,26,26,138,66.16627240000525,,,,,,,,66.16025710001122,66.65552259999095,67.40026920003584,,,,,,,,,,l,1,0.7414381999988109,None,,,,,,p004,2026-04-14_12h31.06.147,Flanker Compatibility Task,,2026.1.1,120.32955863917877,2026-04-14 12h31.06.440388 +0800
3,square,incong,-10,a,4,27,27,0,a,1,0.6062656999565661,None,,,,,0,27,27,112,67.40769030002411,,,,,,,,67.4015963,67.89545439998619,68.50814700004412,,,,,,,,,,a,1,0.6062656999565661,None,,,,,,p004,2026-04-14_12h31.06.147,Flanker Compatibility Task,,2026.1.1,120.32955863917877,2026-04-14 12h31.06.440388 +0800
3,square,incong,10,a,2,28,28,0,a,1,0.8240839999634773,None,,,,,0,28,28,116,68.51681250002002,,,,,,,,68.5095056,69.00204699998721,69.83352420001756,,,,,,,,,,a,1,0.8240839999634773,None,,,,,,p004,2026-04-14_12h31.06.147,Flanker Compatibility Task,,2026.1.1,120.32955863917877,2026-04-14 12h31.06.440388 +0800
2,diamond,cong,-10,l,5,29,29,0,l,1,0.6676010999944992,None,,,,,0,29,29,77,69.8408608,,,,,,,,69.83488290000241,70.32794540002942,70.99906740000006,,,,,,,,,,l,1,0.6676010999944992,None,,,,,,p004,2026-04-14_12h31.06.147,Flanker Compatibility Task,,2026.1.1,120.32955863917877,2026-04-14 12h31.06.440388 +0800
1,square,incong,10,a,4,30,30,0,a,1,0.8985340999788605,None,,,,,0,30,30,22,71.00644680002006,,,,,,,,71.0002903,71.49322790000588,72.40027700003702,,,,,,,,,,a,1,0.8985340999788605,None,,,,,,p004,2026-04-14_12h31.06.147,Flanker Compatibility Task,,2026.1.1,120.32955863917877,2026-04-14 12h31.06.440388 +0800
1,square,incong,10,a,3,31,31,0,a,1,0.8262677000020631,None,,,,,0,31,31,21,72.40732090000529,,,,,,,,72.4018087,72.90002760000061,73.731699,,,,,,,,,,a,1,0.8262677000020631,None,,,,,,p004,2026-04-14_12h31.06.147,Flanker Compatibility Task,,2026.1.1,120.32955863917877,2026-04-14 12h31.06.440388 +0800
1,diamond,incong,10,l,3,32,32,0,l,1,0.5928879,None,,,,,0,32,32,45,73.7395886,,,,,,,,73.73288530000718,74.22626200004015,74.82332170003792,,,,,,,,,,l,1,0.5928879,None,,,,,,p004,2026-04-14_12h31.06.147,Flanker Compatibility Task,,2026.1.1,120.32955863917877,2026-04-14 12h31.06.440388 +0800
4,square,incong,-10,a,1,33,33,0,a,1,0.6042674000491388,None,,,,,0,33,33,157,74.83089069998823,,,,,,,,74.8251031,75.3194486,75.93131439998979,,,,,,,,,,a,1,0.6042674000491388,None,,,,,,p004,2026-04-14_12h31.06.147,Flanker Compatibility Task,,2026.1.1,120.32955863917877,2026-04-14 12h31.06.440388 +0800
3,square,incong,10,a,1,34,34,0,a,1,0.5274796999874525,None,,,,,0,34,34,115,75.93885620002402,,,,,,,,75.93239219998941,76.42740540002706,76.95687699998962,,,,,,,,,,a,1,0.5274796999874525,None,,,,,,p004,2026-04-14_12h31.06.147,Flanker Compatibility Task,,2026.1.1,120.32955863917877,2026-04-14 12h31.06.440388 +0800
3,square,cong,-10,a,4,35,35,0,a,1,0.6665871000150219,None,,,,,0,35,35,100,76.9641126,,,,,,,,76.95832780003548,77.45942400000058,78.13102969998727,,,,,,,,,,a,1,0.6665871000150219,None,,,,,,p004,2026-04-14_12h31.06.147,Flanker Compatibility Task,,2026.1.1,120.32955863917877,2026-04-14 12h31.06.440388 +0800
3,square,cong,-10,a,0,36,36,0,a,1,0.5189522000146098,None,,,,,0,36,36,96,78.13820400001714,,,,,,,,78.13234260003082,78.63515530002769,79.1559543,,,,,,,,,,a,1,0.5189522000146098,None,,,,,,p004,2026-04-14_12h31.06.147,Flanker Compatibility Task,,2026.1.1,120.32955863917877,2026-04-14 12h31.06.440388 +0800
2,diamond,incong,10,l,2,37,37,0,l,1,0.7385121,None,,,,,0,37,37,92,79.16322420001961,,,,,,,,79.15732430003118,79.6512548,80.39749880001182,,,,,,,,,,l,1,0.7385121,None,,,,,,p004,2026-04-14_12h31.06.147,Flanker Compatibility Task,,2026.1.1,120.32955863917877,2026-04-14 12h31.06.440388 +0800
3,diamond,cong,10,l,4,38,38,0,l,1,1.119903999962844,None,,,,,0,38,38,130,80.40488759998698,,,,,,,,80.39897869998822,80.89202920004027,82.01389060000656,,,,,,,,,,l,1,1.119903999962844,None,,,,,,p004,2026-04-14_12h31.06.147,Flanker Compatibility Task,,2026.1.1,120.32955863917877,2026-04-14 12h31.06.440388 +0800
2,diamond,cong,-10,l,3,39,39,0,l,1,0.8532063000020571,None,,,,,0,39,39,75,82.02078100002836,,,,,,,,82.01522460003616,82.51715780002996,83.37205320002977,,,,,,,,,,l,1,0.8532063000020571,None,,,,,,p004,2026-04-14_12h31.06.147,Flanker Compatibility Task,,2026.1.1,120.32955863917877,2026-04-14 12h31.06.440388 +0800
3,diamond,cong,10,l,1,40,40,0,l,1,1.319558400020469,None,,,,,0,40,40,127,83.37890640000114,,,,,,,,83.37353480001912,83.87481770000886,85.19736230000854,,,,,,,,,,l,1,1.319558400020469,None,,,,,,p004,2026-04-14_12h31.06.147,Flanker Compatibility Task,,2026.1.1,120.32955863917877,2026-04-14 12h31.06.440388 +0800
2,diamond,cong,10,l,5,41,41,0,l,1,0.5385347999981605,None,,,,,0,41,41,83,85.20486250001704,,,,,,,,85.19885560002876,85.69880130002275,86.24534880003193,,,,,,,,,,l,1,0.5385347999981605,None,,,,,,p004,2026-04-14_12h31.06.147,Flanker Compatibility Task,,2026.1.1,120.32955863917877,2026-04-14 12h31.06.440388 +0800
3,diamond,incong,10,l,4,42,42,0,l,1,0.8279176999931224,None,,,,,0,42,42,142,86.25309449998895,,,,,,,,86.24668680003379,86.74064630002249,87.57107430003816,,,,,,,,,,l,1,0.8279176999931224,None,,,,,,p004,2026-04-14_12h31.06.147,Flanker Compatibility Task,,2026.1.1,120.32955863917877,2026-04-14 12h31.06.440388 +0800
3,square,cong,10,a,1,43,43,0,a,1,0.5072953,None,,,,,0,43,43,103,87.57795240002451,,,,,,,,87.57211609999649,88.06600089999847,88.5783263,,,,,,,,,,a,1,0.5072953,None,,,,,,p004,2026-04-14_12h31.06.147,Flanker Compatibility Task,,2026.1.1,120.32955863917877,2026-04-14 12h31.06.440388 +0800
2,diamond,cong,10,l,2,44,44,0,l,1,0.652274,None,,,,,0,44,44,80,88.58646780002164,,,,,,,,88.57955630001379,89.07277989998693,89.72905439999886,,,,,,,,,,l,1,0.652274,None,,,,,,p004,2026-04-14_12h31.06.147,Flanker Compatibility Task,,2026.1.1,120.32955863917877,2026-04-14 12h31.06.440388 +0800
4,diamond,incong,10,l,1,45,45,0,l,1,0.6644283999921754,None,,,,,0,45,45,187,89.73548530001426,,,,,,,,89.73060410004109,90.23255810001865,90.90286040003411,,,,,,,,,,l,1,0.6644283999921754,None,,,,,,p004,2026-04-14_12h31.06.147,Flanker Compatibility Task,,2026.1.1,120.32955863917877,2026-04-14 12h31.06.440388 +0800
2,square,incong,-10,a,5,46,46,0,a,1,0.5247034999774769,None,,,,,0,46,46,65,90.91084319999209,,,,,,,,90.90411970001878,91.39776850002818,91.9271965,,,,,,,,,,a,1,0.5247034999774769,None,,,,,,p004,2026-04-14_12h31.06.147,Flanker Compatibility Task,,2026.1.1,120.32955863917877,2026-04-14 12h31.06.440388 +0800
2,diamond,cong,-10,l,4,47,47,0,l,1,0.8226264999830164,None,,,,,0,47,47,76,91.93516260001343,,,,,,,,91.92844630003674,92.42257490003249,93.25332429999253,,,,,,,,,,l,1,0.8226264999830164,None,,,,,,p004,2026-04-14_12h31.06.147,Flanker Compatibility Task,,2026.1.1,120.32955863917877,2026-04-14 12h31.06.440388 +0800
3,diamond,incong,10,l,5,48,48,0,l,1,0.6623904000152834,None,,,,,0,48,48,143,93.25950139999622,,,,,,,,93.25478270003805,93.75515099999029,94.41941500001121,,,,,,,,,,l,1,0.6623904000152834,None,,,,,,p004,2026-04-14_12h31.06.147,Flanker Compatibility Task,,2026.1.1,120.32955863917877,2026-04-14 12h31.06.440388 +0800
2,square,incong,10,a,2,49,49,0,a,1,0.6586522999568842,None,,,,,0,49,49,68,94.425907,,,,,,,,94.42075900000054,94.92146800004411,95.58652930002427,,,,,,,,,,a,1,0.6586522999568842,None,,,,,,p004,2026-04-14_12h31.06.147,Flanker Compatibility Task,,2026.1.1,120.32955863917877,2026-04-14 12h31.06.440388 +0800
1,square,incong,10,a,1,50,50,0,a,1,1.1745397000340745,None,,,,,0,50,50,19,95.593416,,,,,,,,95.5878076,96.08739060000516,97.26823650003644,,,,,,,,,,a,1,1.1745397000340745,None,,,,,,p004,2026-04-14_12h31.06.147,Flanker Compatibility Task,,2026.1.1,120.32955863917877,2026-04-14 12h31.06.440388 +0800
3,diamond,incong,-10,l,5,51,51,0,l,1,0.8479606999899261,None,,,,,0,51,51,137,97.27585010003531,,,,,,,,97.26959119999083,97.76266659999965,98.61699660000158,,,,,,,,,,l,1,0.8479606999899261,None,,,,,,p004,2026-04-14_12h31.06.147,Flanker Compatibility Task,,2026.1.1,120.32955863917877,2026-04-14 12h31.06.440388 +0800
2,diamond,incong,-10,l,4,52,52,0,l,1,0.6199751999811269,None,,,,,0,52,52,88,98.6250026,,,,,,,,98.61824520002119,99.1127113,99.7336485,,,,,,,,,,l,1,0.6199751999811269,None,,,,,,p004,2026-04-14_12h31.06.147,Flanker Compatibility Task,,2026.1.1,120.32955863917877,2026-04-14 12h31.06.440388 +0800
1,diamond,cong,-10,l,5,53,53,0,l,1,0.47227379999822006,None,,,,,0,53,53,29,99.74193439999362,,,,,,,,99.73483940004371,100.2298090000404,100.70884110004408,,,,,,,,,,l,1,0.47227379999822006,None,,,,,,p004,2026-04-14_12h31.06.147,Flanker Compatibility Task,,2026.1.1,120.32955863917877,2026-04-14 12h31.06.440388 +0800
4,square,incong,10,a,0,54,54,0,a,1,0.6967346000019461,None,,,,,0,54,54,162,100.71713210002054,,,,,,,,100.71030979999341,101.2018888000166,101.90131779998774,,,,,,,,,,a,1,0.6967346000019461,None,,,,,,p004,2026-04-14_12h31.06.147,Flanker Compatibility Task,,2026.1.1,120.32955863917877,2026-04-14 12h31.06.440388 +0800
2,diamond,cong,10,l,3,55,55,0,l,1,0.7065670000156388,None,,,,,0,55,55,81,101.9074911000207,,,,,,,,101.9026475000428,102.40208500000881,103.1169694000273,,,,,,,,,,l,1,0.7065670000156388,None,,,,,,p004,2026-04-14_12h31.06.147,Flanker Compatibility Task,,2026.1.1,120.32955863917877,2026-04-14 12h31.06.440388 +0800
3,square,incong,-10,a,5,56,56,0,a,1,0.5510008999845013,None,,,,,0,56,56,113,103.12418029998662,,,,,,,,103.11842950002756,103.6109540000325,104.16572700004326,,,,,,,,,,a,1,0.5510008999845013,None,,,,,,p004,2026-04-14_12h31.06.147,Flanker Compatibility Task,,2026.1.1,120.32955863917877,2026-04-14 12h31.06.440388 +0800
1,square,cong,-10,a,1,57,57,0,a,1,0.5837735999957658,None,,,,,0,57,57,1,104.17422789998818,,,,,,,,104.16692430002149,104.66125900001498,105.24878540000645,,,,,,,,,,a,1,0.5837735999957658,None,,,,,,p004,2026-04-14_12h31.06.147,Flanker Compatibility Task,,2026.1.1,120.32955863917877,2026-04-14 12h31.06.440388 +0800
2,diamond,incong,-10,l,2,58,58,0,l,1,0.7407273999997415,None,,,,,0,58,58,86,105.25771050003823,,,,,,,,105.24971270002425,105.74429890001193,106.49052799999481,,,,,,,,,,l,1,0.7407273999997415,None,,,,,,p004,2026-04-14_12h31.06.147,Flanker Compatibility Task,,2026.1.1,120.32955863917877,2026-04-14 12h31.06.440388 +0800
1,square,cong,10,a,5,59,59,0,a,1,0.7210762999602593,None,,,,,0,59,59,11,106.4991928000236,,,,,,,,106.49169580003945,106.98288860003231,107.70649549999507,,,,,,,,,,a,1,0.7210762999602593,None,,,,,,p004,2026-04-14_12h31.06.147,Flanker Compatibility Task,,2026.1.1,120.32955863917877,2026-04-14 12h31.06.440388 +0800
4,diamond,incong,10,l,3,60,60,0,l,1,1.290877899969928,None,,,,,0,60,60,189,107.71435070002917,,,,,,,,107.70755960000679,108.20243480004137,109.49799699999858,,,,,,,,,,l,1,1.290877899969928,None,,,,,,p004,2026-04-14_12h31.06.147,Flanker Compatibility Task,,2026.1.1,120.32955863917877,2026-04-14 12h31.06.440388 +0800
2,diamond,cong,-10,l,2,61,61,0,l,1,0.7861174000427127,None,,,,,0,61,61,74,109.50667450000765,,,,,,,,109.49926020001294,109.99293350003427,110.7819470000104,,,,,,,,,,l,1,0.7861174000427127,None,,,,,,p004,2026-04-14_12h31.06.147,Flanker Compatibility Task,,2026.1.1,120.32955863917877,2026-04-14 12h31.06.440388 +0800
4,square,cong,10,a,0,62,62,0,a,1,0.5768141999724321,None,,,,,0,62,62,150,110.78851650003344,,,,,,,,110.78347550000763,111.28137079998851,111.86392130004242,,,,,,,,,,a,1,0.5768141999724321,None,,,,,,p004,2026-04-14_12h31.06.147,Flanker Compatibility Task,,2026.1.1,120.32955863917877,2026-04-14 12h31.06.440388 +0800
1,square,incong,-10,a,5,63,63,0,a,1,0.8239448000094853,None,,,,,0,63,63,17,111.87138620001497,,,,,,,,111.8651115000248,112.35914040001808,113.18863680004142,,,,,,,,,,a,1,0.8239448000094853,None,,,,,,p004,2026-04-14_12h31.06.147,Flanker Compatibility Task,,2026.1.1,120.32955863917877,2026-04-14 12h31.06.440388 +0800
4,diamond,incong,-10,l,4,64,64,0,l,1,1.3051065999898128,None,,,,,0,64,64,184,113.19687980000162,,,,,,,,113.18969620001735,113.68243610003265,114.9892013000208,,,,,,,,,,l,1,1.3051065999898128,None,,,,,,p004,2026-04-14_12h31.06.147,Flanker Compatibility Task,,2026.1.1,120.32955863917877,2026-04-14 12h31.06.440388 +0800
3,square,cong,10,a,2,65,65,0,a,1,0.9149320999858901,None,,,,,0,65,65,104,114.99581550003495,,,,,,,,114.9906411000411,115.4907689000247,116.41321770002833,,,,,,,,,,a,1,0.9149320999858901,None,,,,,,p004,2026-04-14_12h31.06.147,Flanker Compatibility Task,,2026.1.1,120.32955863917877,2026-04-14 12h31.06.440388 +0800
4,square,incong,10,a,2,66,66,0,a,1,1.1139189000241458,None,,,,,0,66,66,164,116.42083240003558,,,,,,,,116.41477249999298,116.9086871999898,118.02937740000198,,,,,,,,,,a,1,1.1139189000241458,None,,,,,,p004,2026-04-14_12h31.06.147,Flanker Compatibility Task,,2026.1.1,120.32955863917877,2026-04-14 12h31.06.440388 +0800
4,square,incong,10,a,3,67,67,0,a,1,1.8954563000006601,None,,,,,0,67,67,165,118.03773780004121,,,,,,,,118.03082960000029,118.52480190002825,120.42126380000263,,,,,,,,,,a,1,1.8954563000006601,None,,,,,,p004,2026-04-14_12h31.06.147,Flanker Compatibility Task,,2026.1.1,120.32955863917877,2026-04-14 12h31.06.440388 +0800
1,square,incong,-10,a,2,68,68,0,a,1,0.6982494000112638,None,,,,,0,68,68,14,120.42778910003835,,,,,,,,120.42252419999568,120.92372020002222,121.62821920000715,,,,,,,,,,a,1,0.6982494000112638,None,,,,,,p004,2026-04-14_12h31.06.147,Flanker Compatibility Task,,2026.1.1,120.32955863917877,2026-04-14 12h31.06.440388 +0800
3,square,incong,10,a,5,69,69,0,a,1,0.5640119999879971,None,,,,,0,69,69,119,121.63640020001912,,,,,,,,121.62955080001848,122.12431809998816,122.6945309000439,,,,,,,,,,a,1,0.5640119999879971,None,,,,,,p004,2026-04-14_12h31.06.147,Flanker Compatibility Task,,2026.1.1,120.32955863917877,2026-04-14 12h31.06.440388 +0800
4,diamond,cong,10,l,2,70,70,0,l,1,1.1277936000260524,None,,,,,0,70,70,176,122.70257100003073,,,,,,,,122.69595860003028,123.19051400001626,124.32049569999799,,,,,,,,,,l,1,1.1277936000260524,None,,,,,,p004,2026-04-14_12h31.06.147,Flanker Compatibility Task,,2026.1.1,120.32955863917877,2026-04-14 12h31.06.440388 +0800
4,diamond,cong,10,l,3,71,71,0,l,1,1.2772647999809124,None,,,,,0,71,71,177,124.32686860003741,,,,,,,,124.32208810001612,124.82321220001904,126.10284700000193,,,,,,,,,,l,1,1.2772647999809124,None,,,,,,p004,2026-04-14_12h31.06.147,Flanker Compatibility Task,,2026.1.1,120.32955863917877,2026-04-14 12h31.06.440388 +0800
3,diamond,cong,-10,l,5,72,72,0,l,1,0.675416,None,,,,,0,72,72,125,126.1097856000415,,,,,,,,126.1042874000268,126.59824429999571,127.27786020003259,,,,,,,,,,l,1,0.675416,None,,,,,,p004,2026-04-14_12h31.06.147,Flanker Compatibility Task,,2026.1.1,120.32955863917877,2026-04-14 12h31.06.440388 +0800
4,diamond,cong,10,l,4,73,73,0,l,1,0.7501647000317462,None,,,,,0,73,73,178,127.28469490003772,,,,,,,,127.27941740001552,127.7809103000327,128.53489300003275,,,,,,,,,,l,1,0.7501647000317462,None,,,,,,p004,2026-04-14_12h31.06.147,Flanker Compatibility Task,,2026.1.1,120.32955863917877,2026-04-14 12h31.06.440388 +0800
2,diamond,incong,10,l,3,74,74,0,l,1,0.7159340999787673,None,,,,,0,74,74,93,128.54244290001225,,,,,,,,128.53611480002292,129.02911510004196,129.75185810000403,,,,,,,,,,l,1,0.7159340999787673,None,,,,,,p004,2026-04-14_12h31.06.147,Flanker Compatibility Task,,2026.1.1,120.32955863917877,2026-04-14 12h31.06.440388 +0800
3,square,incong,10,a,0,75,75,0,a,1,0.5773423000355251,None,,,,,0,75,75,114,129.75929790001828,,,,,,,,129.7532289000228,130.2551375000039,130.83486960001756,,,,,,,,,,a,1,0.5773423000355251,None,,,,,,p004,2026-04-14_12h31.06.147,Flanker Compatibility Task,,2026.1.1,120.32955863917877,2026-04-14 12h31.06.440388 +0800
1,square,cong,10,a,4,76,76,0,a,1,0.49234130000695586,None,,,,,0,76,76,10,130.8424282000051,,,,,,,,130.8359010000131,131.33592139999382,131.83461820002412,,,,,,,,,,a,1,0.49234130000695586,None,,,,,,p004,2026-04-14_12h31.06.147,Flanker Compatibility Task,,2026.1.1,120.32955863917877,2026-04-14 12h31.06.440388 +0800
2,square,cong,-10,a,4,77,77,0,a,1,0.4887071,None,,,,,0,77,77,52,131.84276989998762,,,,,,,,131.83573350001825,132.32883350003976,132.81860350002535,,,,,,,,,,a,1,0.4887071,None,,,,,,p004,2026-04-14_12h31.06.147,Flanker Compatibility Task,,2026.1.1,120.32955863917877,2026-04-14 12h31.06.440388 +0800
1,diamond,cong,-10,l,3,78,78,0,l,1,0.5562230999930762,None,,,,,0,78,78,27,132.8251664999989,,,,,,,,132.81963829998858,133.31900280003902,133.8764305000077,,,,,,,,,,l,1,0.5562230999930762,None,,,,,,p004,2026-04-14_12h31.06.147,Flanker Compatibility Task,,2026.1.1,120.32955863917877,2026-04-14 12h31.06.440388 +0800
4,diamond,cong,-10,l,3,79,79,0,l,1,0.8300255999783985,None,,,,,0,79,79,171,133.88367130002007,,,,,,,,133.8780848000315,134.37937460001558,135.21682780003175,,,,,,,,,,l,1,0.8300255999783985,None,,,,,,p004,2026-04-14_12h31.06.147,Flanker Compatibility Task,,2026.1.1,120.32955863917877,2026-04-14 12h31.06.440388 +0800
4,square,cong,10,a,3,80,80,0,a,1,0.9216353999800049,None,,,,,0,80,80,153,135.22483920003287,,,,,,,,135.21830360003514,135.71236300002784,136.6415445000166,,,,,,,,,,a,1,0.9216353999800049,None,,,,,,p004,2026-04-14_12h31.06.147,Flanker Compatibility Task,,2026.1.1,120.32955863917877,2026-04-14 12h31.06.440388 +0800
1,square,cong,-10,a,4,81,81,0,a,1,0.5121312999981456,None,,,,,0,81,81,4,136.64946169999894,,,,,,,,136.64304440002888,137.13455880002584,137.65000270004384,,,,,,,,,,a,1,0.5121312999981456,None,,,,,,p004,2026-04-14_12h31.06.147,Flanker Compatibility Task,,2026.1.1,120.32955863917877,2026-04-14 12h31.06.440388 +0800
1,diamond,cong,10,l,4,82,82,0,l,1,0.6290887999930419,None,,,,,0,82,82,34,137.65700400003698,,,,,,,,137.65143800002988,138.14444669999648,138.77482069999678,,,,,,,,,,l,1,0.6290887999930419,None,,,,,,p004,2026-04-14_12h31.06.147,Flanker Compatibility Task,,2026.1.1,120.32955863917877,2026-04-14 12h31.06.440388 +0800
4,diamond,incong,10,l,0,83,83,0,l,1,2.381516500026919,None,,,,,0,83,83,186,138.78148090001196,,,,,,,,138.77634730003774,139.26946869998937,141.6598481000401,,,,,,,,,,l,1,2.381516500026919,None,,,,,,p004,2026-04-14_12h31.06.147,Flanker Compatibility Task,,2026.1.1,120.32955863917877,2026-04-14 12h31.06.440388 +0800
4,diamond,incong,-10,l,3,84,84,0,l,1,1.1321506000240333,None,,,,,0,84,84,183,141.66591480001807,,,,,,,,141.66147300001467,142.16027930000564,143.29832210001769,,,,,,,,,,l,1,1.1321506000240333,None,,,,,,p004,2026-04-14_12h31.06.147,Flanker Compatibility Task,,2026.1.1,120.32955863917877,2026-04-14 12h31.06.440388 +0800
4,square,cong,10,a,5,85,85,0,a,1,0.8378471999894828,None,,,,,0,85,85,155,143.3062978,,,,,,,,143.29976740002166,143.79411270003766,144.6400808999897,,,,,,,,,,a,1,0.8378471999894828,None,,,,,,p004,2026-04-14_12h31.06.147,Flanker Compatibility Task,,2026.1.1,120.32955863917877,2026-04-14 12h31.06.440388 +0800
1,square,incong,10,a,2,86,86,0,a,1,0.6011511000106111,None,,,,,0,86,86,20,144.64741179998964,,,,,,,,144.64164210000308,145.14254470000742,145.74865170003613,,,,,,,,,,a,1,0.6011511000106111,None,,,,,,p004,2026-04-14_12h31.06.147,Flanker Compatibility Task,,2026.1.1,120.32955863917877,2026-04-14 12h31.06.440388 +0800
2,square,cong,-10,a,2,87,87,0,a,1,0.5471632000408135,None,,,,,0,87,87,50,145.75537490000715,,,,,,,,145.75001160003012,146.2502749999985,146.80537270003697,,,,,,,,,,a,1,0.5471632000408135,None,,,,,,p004,2026-04-14_12h31.06.147,Flanker Compatibility Task,,2026.1.1,120.32955863917877,2026-04-14 12h31.06.440388 +0800
4,diamond,incong,-10,l,0,88,88,0,l,1,0.7963354000239633,None,,,,,0,88,88,180,146.81328490003943,,,,,,,,146.8068378000171,147.30121820000932,148.0984114999883,,,,,,,,,,l,1,0.7963354000239633,None,,,,,,p004,2026-04-14_12h31.06.147,Flanker Compatibility Task,,2026.1.1,120.32955863917877,2026-04-14 12h31.06.440388 +0800
1,diamond,incong,-10,l,3,89,89,0,l,1,0.841163,None,,,,,0,89,89,39,148.1047521000146,,,,,,,,148.0994790000259,148.60009170003468,149.44719460001215,,,,,,,,,,l,1,0.841163,None,,,,,,p004,2026-04-14_12h31.06.147,Flanker Compatibility Task,,2026.1.1,120.32955863917877,2026-04-14 12h31.06.440388 +0800
3,square,cong,10,a,3,90,90,0,a,1,0.7003989000222646,None,,,,,0,90,90,105,149.4540833,,,,,,,,149.44894590001786,149.9421607000404,150.6476005000295,,,,,,,,,,a,1,0.7003989000222646,None,,,,,,p004,2026-04-14_12h31.06.147,Flanker Compatibility Task,,2026.1.1,120.32955863917877,2026-04-14 12h31.06.440388 +0800
1,square,incong,10,a,0,91,91,0,a,1,0.976064,None,,,,,0,91,91,18,150.65369860001374,,,,,,,,150.64887020003516,151.1491718000034,152.12882909999462,,,,,,,,,,a,1,0.976064,None,,,,,,p004,2026-04-14_12h31.06.147,Flanker Compatibility Task,,2026.1.1,120.32955863917877,2026-04-14 12h31.06.440388 +0800
3,diamond,incong,-10,l,0,92,92,0,l,1,0.6728061999892816,None,,,,,0,92,92,132,152.13666950003244,,,,,,,,152.13016890001018,152.62431039998773,153.30479530000594,,,,,,,,,,l,1,0.6728061999892816,None,,,,,,p004,2026-04-14_12h31.06.147,Flanker Compatibility Task,,2026.1.1,120.32955863917877,2026-04-14 12h31.06.440388 +0800
1,diamond,incong,10,l,1,93,93,0,l,1,1.179529199958779,None,,,,,0,93,93,43,153.3127036000369,,,,,,,,153.3059832,153.79849040001864,154.97984710003948,,,,,,,,,,l,1,1.179529199958779,None,,,,,,p004,2026-04-14_12h31.06.147,Flanker Compatibility Task,,2026.1.1,120.32955863917877,2026-04-14 12h31.06.440388 +0800
1,square,cong,-10,a,5,94,94,0,a,1,0.6466657999553718,None,,,,,0,94,94,5,154.98668949998682,,,,,,,,154.98115810001036,155.47801520000212,156.12968750001164,,,,,,,,,,a,1,0.6466657999553718,None,,,,,,p004,2026-04-14_12h31.06.147,Flanker Compatibility Task,,2026.1.1,120.32955863917877,2026-04-14 12h31.06.440388 +0800
2,square,cong,-10,a,3,95,95,0,a,1,0.7258629000280052,None,,,,,0,95,95,51,156.13633629999822,,,,,,,,156.13101810001535,156.62959120003507,157.36268960003508,,,,,,,,,,a,1,0.7258629000280052,None,,,,,,p004,2026-04-14_12h31.06.147,Flanker Compatibility Task,,2026.1.1,120.32955863917877,2026-04-14 12h31.06.440388 +0800
3,diamond,cong,-10,l,3,96,96,0,l,1,0.7158558999653906,None,,,,,0,96,96,123,157.36998170003062,,,,,,,,157.36414010002045,157.86538850003853,158.58659369999077,,,,,,,,,,l,1,0.7158558999653906,None,,,,,,p004,2026-04-14_12h31.06.147,Flanker Compatibility Task,,2026.1.1,120.32955863917877,2026-04-14 12h31.06.440388 +0800
1,square,incong,10,a,5,97,97,0,a,1,0.49911970004905015,None,,,,,0,97,97,23,158.59428459999617,,,,,,,,158.58750740002142,159.08114520000527,159.5853274,,,,,,,,,,a,1,0.49911970004905015,None,,,,,,p004,2026-04-14_12h31.06.147,Flanker Compatibility Task,,2026.1.1,120.32955863917877,2026-04-14 12h31.06.440388 +0800
2,square,cong,-10,a,5,98,98,0,a,1,0.4489785999758169,None,,,,,0,98,98,53,159.59351600002265,,,,,,,,159.58622890000697,160.0804225,160.53618610004196,,,,,,,,,,a,1,0.4489785999758169,None,,,,,,p004,2026-04-14_12h31.06.147,Flanker Compatibility Task,,2026.1.1,120.32955863917877,2026-04-14 12h31.06.440388 +0800
1,square,cong,10,a,2,99,99,0,a,1,0.9644495000247844,None,,,,,0,99,99,8,160.54406089999247,,,,,,,,160.5373443000135,161.03866530000232,162.01027289999183,,,,,,,,,,a,1,0.9644495000247844,None,,,,,,p004,2026-04-14_12h31.06.147,Flanker Compatibility Task,,2026.1.1,120.32955863917877,2026-04-14 12h31.06.440388 +0800
3,square,incong,-10,a,3,100,100,0,a,1,0.6828158000134863,None,,,,,0,100,100,111,162.01846729998942,,,,,,,,162.01238830003422,162.50606280000648,163.19292609998956,,,,,,,,,,a,1,0.6828158000134863,None,,,,,,p004,2026-04-14_12h31.06.147,Flanker Compatibility Task,,2026.1.1,120.32955863917877,2026-04-14 12h31.06.440388 +0800
2,square,cong,10,a,3,101,101,0,a,1,0.6826293999911286,None,,,,,0,101,101,57,163.20106870000018,,,,,,,,163.19415980001213,163.687367,164.37610420002602,,,,,,,,,,a,1,0.6826293999911286,None,,,,,,p004,2026-04-14_12h31.06.147,Flanker Compatibility Task,,2026.1.1,120.32955863917877,2026-04-14 12h31.06.440388 +0800
3,square,cong,10,a,0,102,102,0,a,1,0.6744585999986157,None,,,,,0,102,102,102,164.3846223000437,,,,,,,,164.3775147999986,164.86887910001678,165.55053050001152,,,,,,,,,,a,1,0.6744585999986157,None,,,,,,p004,2026-04-14_12h31.06.147,Flanker Compatibility Task,,2026.1.1,120.32955863917877,2026-04-14 12h31.06.440388 +0800
4,square,incong,-10,a,4,103,103,0,a,1,2.5249803999904543,None,,,,,0,103,103,160,165.55840560002252,,,,,,,,165.5517251000274,166.0468921000138,168.57576289999997,,,,,,,,,,a,1,2.5249803999904543,None,,,,,,p004,2026-04-14_12h31.06.147,Flanker Compatibility Task,,2026.1.1,120.32955863917877,2026-04-14 12h31.06.440388 +0800
3,diamond,cong,10,l,2,104,104,0,l,1,0.8809412000118755,None,,,,,0,104,104,128,168.58340619999217,,,,,,,,168.5771015000064,169.07068780000554,169.95933580002747,,,,,,,,,,l,1,0.8809412000118755,None,,,,,,p004,2026-04-14_12h31.06.147,Flanker Compatibility Task,,2026.1.1,120.32955863917877,2026-04-14 12h31.06.440388 +0800
2,square,incong,-10,a,1,105,105,0,a,1,0.6916797999874689,None,,,,,0,105,105,61,169.96652310003992,,,,,,,,169.96069939999143,170.46143299998948,171.15882569999667,,,,,,,,,,a,1,0.6916797999874689,None,,,,,,p004,2026-04-14_12h31.06.147,Flanker Compatibility Task,,2026.1.1,120.32955863917877,2026-04-14 12h31.06.440388 +0800
2,diamond,cong,-10,l,1,106,106,0,l,1,0.7803366999723949,None,,,,,0,106,106,73,171.1662068000296,,,,,,,,171.16018330003135,171.6578611000441,172.4422590000322,,,,,,,,,,l,1,0.7803366999723949,None,,,,,,p004,2026-04-14_12h31.06.147,Flanker Compatibility Task,,2026.1.1,120.32955863917877,2026-04-14 12h31.06.440388 +0800
1,diamond,incong,10,l,5,107,107,0,l,1,0.8643834999529645,None,,,,,0,107,107,47,172.44906409998657,,,,,,,,172.44350980001036,172.94565420004074,173.8163429000415,,,,,,,,,,l,1,0.8643834999529645,None,,,,,,p004,2026-04-14_12h31.06.147,Flanker Compatibility Task,,2026.1.1,120.32955863917877,2026-04-14 12h31.06.440388 +0800
2,square,cong,10,a,1,108,108,0,a,1,0.608832,None,,,,,0,108,108,55,173.82405709999148,,,,,,,,173.8176225000061,174.31447049998678,174.93155259999912,,,,,,,,,,a,1,0.608832,None,,,,,,p004,2026-04-14_12h31.06.147,Flanker Compatibility Task,,2026.1.1,120.32955863917877,2026-04-14 12h31.06.440388 +0800
1,square,incong,-10,a,4,109,109,0,a,1,0.5428183,None,,,,,0,109,109,16,174.94051869999385,,,,,,,,174.9328476000228,175.42331340000965,175.96681569999782,,,,,,,,,,a,1,0.5428183,None,,,,,,p004,2026-04-14_12h31.06.147,Flanker Compatibility Task,,2026.1.1,120.32955863917877,2026-04-14 12h31.06.440388 +0800
1,diamond,incong,-10,l,5,110,110,0,l,1,0.6075961000169627,None,,,,,0,110,110,41,175.97318969998742,,,,,,,,175.9680890000309,176.4674230000237,177.08165619999636,,,,,,,,,,l,1,0.6075961000169627,None,,,,,,p004,2026-04-14_12h31.06.147,Flanker Compatibility Task,,2026.1.1,120.32955863917877,2026-04-14 12h31.06.440388 +0800
4,diamond,incong,10,l,4,111,111,0,l,1,1.2934682000195608,None,,,,,0,111,111,190,177.08996990002925,,,,,,,,177.0831395999994,177.57413449999876,178.87375510000857,,,,,,,,,,l,1,1.2934682000195608,None,,,,,,p004,2026-04-14_12h31.06.147,Flanker Compatibility Task,,2026.1.1,120.32955863917877,2026-04-14 12h31.06.440388 +0800
4,diamond,cong,10,l,5,112,112,0,l,1,0.4902177000185475,None,,,,,0,112,112,179,178.88064350001514,,,,,,,,178.8753035000409,179.37624960002722,179.87285960000008,,,,,,,,,,l,1,0.4902177000185475,None,,,,,,p004,2026-04-14_12h31.06.147,Flanker Compatibility Task,,2026.1.1,120.32955863917877,2026-04-14 12h31.06.440388 +0800
4,diamond,incong,-10,l,1,113,113,0,l,1,1.242706100048963,None,,,,,0,113,113,181,179.88046389998635,,,,,,,,179.87427180004306,180.36799669999164,181.61380110000027,,,,,,,,,,l,1,1.242706100048963,None,,,,,,p004,2026-04-14_12h31.06.147,Flanker Compatibility Task,,2026.1.1,120.32955863917877,2026-04-14 12h31.06.440388 +0800
2,square,incong,10,a,3,114,114,0,a,1,0.9111456000246108,None,,,,,0,114,114,69,181.62088850000873,,,,,,,,181.61498380004195,182.10858420003206,183.02161830000114,,,,,,,,,,a,1,0.9111456000246108,None,,,,,,p004,2026-04-14_12h31.06.147,Flanker Compatibility Task,,2026.1.1,120.32955863917877,2026-04-14 12h31.06.440388 +0800
1,diamond,incong,-10,l,2,115,115,0,l,1,0.9238366,None,,,,,0,115,115,38,183.02892030001385,,,,,,,,183.02273520000745,183.51584840001306,184.44071350002196,,,,,,,,,,l,1,0.9238366,None,,,,,,p004,2026-04-14_12h31.06.147,Flanker Compatibility Task,,2026.1.1,120.32955863917877,2026-04-14 12h31.06.440388 +0800
3,diamond,cong,-10,l,0,116,116,0,l,1,1.0300000999704935,None,,,,,0,116,116,120,184.44591850001598,,,,,,,,184.44279360002838,184.94193010003073,185.98007310001412,,,,,,,,,,l,1,1.0300000999704935,None,,,,,,p004,2026-04-14_12h31.06.147,Flanker Compatibility Task,,2026.1.1,120.32955863917877,2026-04-14 12h31.06.440388 +0800
3,diamond,incong,-10,l,3,117,117,0,l,1,0.8700676999869756,None,,,,,0,117,117,135,185.98705110000446,,,,,,,,185.9818144000019,186.4748231000267,187.34600900002988,,,,,,,,,,l,1,0.8700676999869756,None,,,,,,p004,2026-04-14_12h31.06.147,Flanker Compatibility Task,,2026.1.1,120.32955863917877,2026-04-14 12h31.06.440388 +0800
4,diamond,cong,-10,l,4,118,118,0,l,1,0.8490854999981821,None,,,,,0,118,118,172,187.3529062999878,,,,,,,,187.3475429,187.84057280002162,188.69508259999566,,,,,,,,,,l,1,0.8490854999981821,None,,,,,,p004,2026-04-14_12h31.06.147,Flanker Compatibility Task,,2026.1.1,120.32955863917877,2026-04-14 12h31.06.440388 +0800
3,square,cong,-10,a,5,119,119,0,a,1,0.6940287000034004,None,,,,,0,119,119,101,188.70336990000214,,,,,,,,188.69645720004337,189.19031139998697,189.88771370000904,,,,,,,,,,a,1,0.6940287000034004,None,,,,,,p004,2026-04-14_12h31.06.147,Flanker Compatibility Task,,2026.1.1,120.32955863917877,2026-04-14 12h31.06.440388 +0800
2,square,incong,10,a,5,120,120,0,a,1,0.4768117000348866,None,,,,,0,120,120,71,189.89398059999803,,,,,,,,189.88906519999728,190.3905849000439,190.86929310002597,,,,,,,,,,a,1,0.4768117000348866,None,,,,,,p004,2026-04-14_12h31.06.147,Flanker Compatibility Task,,2026.1.1,120.32955863917877,2026-04-14 12h31.06.440388 +0800
1,diamond,cong,10,l,1,121,121,0,l,1,0.5559150999761187,None,,,,,0,121,121,31,190.87695040000835,,,,,,,,190.87054570001783,191.36456260003615,191.9211731000105,,,,,,,,,,l,1,0.5559150999761187,None,,,,,,p004,2026-04-14_12h31.06.147,Flanker Compatibility Task,,2026.1.1,120.32955863917877,2026-04-14 12h31.06.440388 +0800
4,square,cong,-10,a,3,122,122,0,a,1,0.6584557,None,,,,,0,122,122,147,191.9275520000374,,,,,,,,191.92273520003073,192.42303609999362,193.08570060000056,,,,,,,,,,a,1,0.6584557,None,,,,,,p004,2026-04-14_12h31.06.147,Flanker Compatibility Task,,2026.1.1,120.32955863917877,2026-04-14 12h31.06.440388 +0800
2,diamond,cong,10,l,4,123,123,0,l,1,0.6228619999601506,None,,,,,0,123,123,82,193.09348320000572,,,,,,,,193.0869807000272,193.5809883000329,194.21005870000226,,,,,,,,,,l,1,0.6228619999601506,None,,,,,,p004,2026-04-14_12h31.06.147,Flanker Compatibility Task,,2026.1.1,120.32955863917877,2026-04-14 12h31.06.440388 +0800
4,square,cong,-10,a,1,124,124,0,a,1,0.8946503000333905,None,,,,,0,124,124,145,194.21877810003934,,,,,,,,194.2115124,194.70608730003005,195.6025498,,,,,,,,,,a,1,0.8946503000333905,None,,,,,,p004,2026-04-14_12h31.06.147,Flanker Compatibility Task,,2026.1.1,120.32955863917877,2026-04-14 12h31.06.440388 +0800
3,square,incong,10,a,3,125,125,0,a,1,0.8885342999710701,None,,,,,0,125,125,117,195.60911590000615,,,,,,,,195.60397649998777,196.09855649998644,196.9937295000418,,,,,,,,,,a,1,0.8885342999710701,None,,,,,,p004,2026-04-14_12h31.06.147,Flanker Compatibility Task,,2026.1.1,120.32955863917877,2026-04-14 12h31.06.440388 +0800
1,square,cong,10,a,0,126,126,0,a,1,0.4617099000024609,None,,,,,0,126,126,6,197.00086400000146,,,,,,,,196.9953621000168,197.48808159999317,197.95167969999602,,,,,,,,,,a,1,0.4617099000024609,None,,,,,,p004,2026-04-14_12h31.06.147,Flanker Compatibility Task,,2026.1.1,120.32955863917877,2026-04-14 12h31.06.440388 +0800
2,square,incong,-10,a,3,127,127,0,a,1,0.6164861999568529,None,,,,,0,127,127,63,197.9587606000132,,,,,,,,197.95318670000415,198.44680810003774,199.06849720003083,,,,,,,,,,a,1,0.6164861999568529,None,,,,,,p004,2026-04-14_12h31.06.147,Flanker Compatibility Task,,2026.1.1,120.32955863917877,2026-04-14 12h31.06.440388 +0800
3,square,incong,10,a,4,128,128,0,a,1,0.9827269000234082,None,,,,,0,128,128,118,199.07515759998932,,,,,,,,199.06955320003908,199.5637114000274,200.5517353999894,,,,,,,,,,a,1,0.9827269000234082,None,,,,,,p004,2026-04-14_12h31.06.147,Flanker Compatibility Task,,2026.1.1,120.32955863917877,2026-04-14 12h31.06.440388 +0800
4,square,incong,10,a,1,129,129,0,a,1,0.5457468000240624,None,,,,,0,129,129,163,200.55799960001605,,,,,,,,200.55328490003012,201.0537245000014,201.6011157000321,,,,,,,,,,a,1,0.5457468000240624,None,,,,,,p004,2026-04-14_12h31.06.147,Flanker Compatibility Task,,2026.1.1,120.32955863917877,2026-04-14 12h31.06.440388 +0800
1,diamond,cong,-10,l,1,130,130,0,l,1,0.5031785999890417,None,,,,,0,130,130,25,201.60769660002552,,,,,,,,201.60236160003114,202.1040142,202.6095662000007,,,,,,,,,,l,1,0.5031785999890417,None,,,,,,p004,2026-04-14_12h31.06.147,Flanker Compatibility Task,,2026.1.1,120.32955863917877,2026-04-14 12h31.06.440388 +0800
2,diamond,incong,-10,l,0,131,131,0,l,1,0.6475146999582648,None,,,,,0,131,131,84,202.61593020003056,,,,,,,,202.61091019999003,203.11170940002194,203.7658276000293,,,,,,,,,,l,1,0.6475146999582648,None,,,,,,p004,2026-04-14_12h31.06.147,Flanker Compatibility Task,,2026.1.1,120.32955863917877,2026-04-14 12h31.06.440388 +0800
4,diamond,cong,10,l,0,132,132,0,l,1,0.9141167000052519,None,,,,,0,132,132,174,203.77379680000013,,,,,,,,203.76689630001783,204.26214609999442,205.1829257000354,,,,,,,,,,l,1,0.9141167000052519,None,,,,,,p004,2026-04-14_12h31.06.147,Flanker Compatibility Task,,2026.1.1,120.32955863917877,2026-04-14 12h31.06.440388 +0800
4,square,cong,-10,a,2,133,133,0,a,1,0.7786972000030801,None,,,,,0,133,133,146,205.19118339999113,,,,,,,,205.1844972000108,205.6848742000293,206.46576960000675,,,,,,,,,,a,1,0.7786972000030801,None,,,,,,p004,2026-04-14_12h31.06.147,Flanker Compatibility Task,,2026.1.1,120.32955863917877,2026-04-14 12h31.06.440388 +0800
1,square,cong,-10,a,3,134,134,0,a,1,0.5949003000278026,None,,,,,0,134,134,3,206.47303600003943,,,,,,,,206.46691940003075,206.9620332000195,207.5649747000425,,,,,,,,,,a,1,0.5949003000278026,None,,,,,,p004,2026-04-14_12h31.06.147,Flanker Compatibility Task,,2026.1.1,120.32955863917877,2026-04-14 12h31.06.440388 +0800
4,diamond,cong,-10,l,2,135,135,0,l,1,0.9535866000223905,None,,,,,0,135,135,170,207.57393800001591,,,,,,,,207.56645159999607,208.06113139999798,209.02330330002587,,,,,,,,,,l,1,0.9535866000223905,None,,,,,,p004,2026-04-14_12h31.06.147,Flanker Compatibility Task,,2026.1.1,120.32955863917877,2026-04-14 12h31.06.440388 +0800
4,diamond,incong,10,l,5,136,136,0,l,1,0.7664895000052638,None,,,,,0,136,136,191,209.03190790000372,,,,,,,,209.02474170003552,209.5185683000018,210.2896422999911,,,,,,,,,,l,1,0.7664895000052638,None,,,,,,p004,2026-04-14_12h31.06.147,Flanker Compatibility Task,,2026.1.1,120.32955863917877,2026-04-14 12h31.06.440388 +0800
3,diamond,cong,-10,l,4,137,137,0,l,1,0.9333781000459567,None,,,,,0,137,137,124,210.29787740000756,,,,,,,,210.2909854000318,210.78507929999614,211.72260730003472,,,,,,,,,,l,1,0.9333781000459567,None,,,,,,p004,2026-04-14_12h31.06.147,Flanker Compatibility Task,,2026.1.1,120.32955863917877,2026-04-14 12h31.06.440388 +0800
1,square,cong,-10,a,0,138,138,0,a,1,0.5495457999641076,None,,,,,0,138,138,0,211.73028469999554,,,,,,,,211.72378060000483,212.2170310000074,212.77211830002489,,,,,,,,,,a,1,0.5495457999641076,None,,,,,,p004,2026-04-14_12h31.06.147,Flanker Compatibility Task,,2026.1.1,120.32955863917877,2026-04-14 12h31.06.440388 +0800
1,diamond,incong,10,l,2,139,139,0,l,1,0.6267821999499574,None,,,,,0,139,139,44,212.78120080003282,,,,,,,,212.77357990003657,213.26699820003705,213.89748189999955,,,,,,,,,,l,1,0.6267821999499574,None,,,,,,p004,2026-04-14_12h31.06.147,Flanker Compatibility Task,,2026.1.1,120.32955863917877,2026-04-14 12h31.06.440388 +0800
3,square,cong,10,a,4,140,140,0,a,1,0.8240233999677002,None,,,,,0,140,140,106,213.9045693,,,,,,,,213.8988951999927,214.3924687000108,215.22189440001966,,,,,,,,,,a,1,0.8240233999677002,None,,,,,,p004,2026-04-14_12h31.06.147,Flanker Compatibility Task,,2026.1.1,120.32955863917877,2026-04-14 12h31.06.440388 +0800
2,square,cong,10,a,4,141,141,0,a,1,0.38346139999339357,None,,,,,0,141,141,58,215.23003139998764,,,,,,,,215.22314050002024,215.72510929999407,216.11437349999323,,,,,,,,,,a,1,0.38346139999339357,None,,,,,,p004,2026-04-14_12h31.06.147,Flanker Compatibility Task,,2026.1.1,120.32955863917877,2026-04-14 12h31.06.440388 +0800
1,diamond,cong,10,l,2,142,142,0,l,1,0.6889223,None,,,,,0,142,142,32,216.12077790003968,,,,,,,,216.11551910004346,216.61627719999524,217.3059399999911,,,,,,,,,,l,1,0.6889223,None,,,,,,p004,2026-04-14_12h31.06.147,Flanker Compatibility Task,,2026.1.1,120.32955863917877,2026-04-14 12h31.06.440388 +0800
4,square,incong,10,a,5,143,143,0,a,1,0.6021943,None,,,,,0,143,143,167,217.31207630003337,,,,,,,,217.30749279999873,217.8049333,218.4126782999956,,,,,,,,,,a,1,0.6021943,None,,,,,,p004,2026-04-14_12h31.06.147,Flanker Compatibility Task,,2026.1.1,120.32955863917877,2026-04-14 12h31.06.440388 +0800
4,square,cong,-10,a,0,144,144,0,a,1,1.929621200019028,None,,,,,0,144,144,144,218.42039570002817,,,,,,,,218.41410659998655,218.90947310003685,220.8458656000439,,,,,,,,,,a,1,1.929621200019028,None,,,,,,p004,2026-04-14_12h31.06.147,Flanker Compatibility Task,,2026.1.1,120.32955863917877,2026-04-14 12h31.06.440388 +0800
3,square,cong,10,a,5,145,145,0,a,1,0.5228582000127062,None,,,,,0,145,145,107,220.85409460001392,,,,,,,,220.84719010000117,221.34934580000117,221.8784879000159,,,,,,,,,,a,1,0.5228582000127062,None,,,,,,p004,2026-04-14_12h31.06.147,Flanker Compatibility Task,,2026.1.1,120.32955863917877,2026-04-14 12h31.06.440388 +0800
4,square,cong,10,a,1,146,146,0,a,1,0.5533349000033922,None,,,,,0,146,146,151,221.88675020000665,,,,,,,,221.87953330000164,222.3750784000149,222.92942530004075,,,,,,,,,,a,1,0.5533349000033922,None,,,,,,p004,2026-04-14_12h31.06.147,Flanker Compatibility Task,,2026.1.1,120.32955863917877,2026-04-14 12h31.06.440388 +0800
4,square,cong,-10,a,5,147,147,0,a,1,0.41029359999811277,None,,,,,0,147,147,149,222.9369008000358,,,,,,,,222.93101280002156,223.42434150003828,223.83625270001357,,,,,,,,,,a,1,0.41029359999811277,None,,,,,,p004,2026-04-14_12h31.06.147,Flanker Compatibility Task,,2026.1.1,120.32955863917877,2026-04-14 12h31.06.440388 +0800
3,diamond,incong,-10,l,1,148,148,0,l,1,0.7252208000281826,None,,,,,0,148,148,133,223.84379880002234,,,,,,,,223.83727340004407,224.33834800001932,225.06966280000051,,,,,,,,,,l,1,0.7252208000281826,None,,,,,,p004,2026-04-14_12h31.06.147,Flanker Compatibility Task,,2026.1.1,120.32955863917877,2026-04-14 12h31.06.440388 +0800
2,diamond,incong,10,l,1,149,149,0,l,1,0.7863098,None,,,,,0,149,149,91,225.07781380001688,,,,,,,,225.0709591000341,225.56452670000726,226.3522318000323,,,,,,,,,,l,1,0.7863098,None,,,,,,p004,2026-04-14_12h31.06.147,Flanker Compatibility Task,,2026.1.1,120.32955863917877,2026-04-14 12h31.06.440388 +0800
4,diamond,incong,-10,l,5,150,150,0,l,1,0.7159115999820642,None,,,,,0,150,150,185,226.3598754000268,,,,,,,,226.35370080004213,226.84666750003817,227.5686754999915,,,,,,,,,,l,1,0.7159115999820642,None,,,,,,p004,2026-04-14_12h31.06.147,Flanker Compatibility Task,,2026.1.1,120.32955863917877,2026-04-14 12h31.06.440388 +0800
3,square,incong,-10,a,1,151,151,0,a,1,0.6428871999960393,None,,,,,0,151,151,109,227.57621660002042,,,,,,,,227.5701740999939,228.06403370003682,228.71018860000186,,,,,,,,,,a,1,0.6428871999960393,None,,,,,,p004,2026-04-14_12h31.06.147,Flanker Compatibility Task,,2026.1.1,120.32955863917877,2026-04-14 12h31.06.440388 +0800
4,square,incong,-10,a,0,152,152,0,a,1,0.6545868000248447,None,,,,,0,152,152,156,228.71764480002457,,,,,,,,228.7120286000427,229.2060784000205,229.86810060002608,,,,,,,,,,a,1,0.6545868000248447,None,,,,,,p004,2026-04-14_12h31.06.147,Flanker Compatibility Task,,2026.1.1,120.32955863917877,2026-04-14 12h31.06.440388 +0800
1,square,cong,10,a,3,153,153,0,a,1,0.6368749999674037,None,,,,,0,153,153,9,229.87580089998664,,,,,,,,229.86899059999269,230.36121310002636,231.00226530001964,,,,,,,,,,a,1,0.6368749999674037,None,,,,,,p004,2026-04-14_12h31.06.147,Flanker Compatibility Task,,2026.1.1,120.32955863917877,2026-04-14 12h31.06.440388 +0800
3,diamond,incong,10,l,2,154,154,0,l,1,1.2653291000169702,None,,,,,0,154,154,140,231.00939060002565,,,,,,,,231.00372959999368,231.4972184000071,232.76750890002586,,,,,,,,,,l,1,1.2653291000169702,None,,,,,,p004,2026-04-14_12h31.06.147,Flanker Compatibility Task,,2026.1.1,120.32955863917877,2026-04-14 12h31.06.440388 +0800
1,diamond,cong,10,l,0,155,155,0,l,1,0.8370694000041112,None,,,,,0,155,155,30,232.77578460000223,,,,,,,,232.76902790000895,233.26334930001758,234.10180679999758,,,,,,,,,,l,1,0.8370694000041112,None,,,,,,p004,2026-04-14_12h31.06.147,Flanker Compatibility Task,,2026.1.1,120.32955863917877,2026-04-14 12h31.06.440388 +0800
1,diamond,incong,-10,l,1,156,156,0,l,1,0.9542273000115529,None,,,,,0,156,156,37,234.10807840002235,,,,,,,,234.10308830003487,234.60239190002903,235.5597221000353,,,,,,,,,,l,1,0.9542273000115529,None,,,,,,p004,2026-04-14_12h31.06.147,Flanker Compatibility Task,,2026.1.1,120.32955863917877,2026-04-14 12h31.06.440388 +0800
3,diamond,cong,-10,l,1,157,157,0,l,1,0.7568142000236548,None,,,,,0,157,157,121,235.56600869999966,,,,,,,,235.56154200003948,236.06209540000418,236.8252376000164,,,,,,,,,,l,1,0.7568142000236548,None,,,,,,p004,2026-04-14_12h31.06.147,Flanker Compatibility Task,,2026.1.1,120.32955863917877,2026-04-14 12h31.06.440388 +0800
2,diamond,incong,10,l,5,158,158,0,l,1,0.8753402000293136,None,,,,,0,158,158,95,236.8335308000096,,,,,,,,236.82651179999812,237.32587930001318,238.20777859998634,,,,,,,,,,l,1,0.8753402000293136,None,,,,,,p004,2026-04-14_12h31.06.147,Flanker Compatibility Task,,2026.1.1,120.32955863917877,2026-04-14 12h31.06.440388 +0800
3,square,cong,-10,a,2,159,159,0,a,1,0.6205301000154577,None,,,,,0,159,159,98,238.21650849998696,,,,,,,,238.20912160002626,238.70273660001112,239.32501680002315,,,,,,,,,,a,1,0.6205301000154577,None,,,,,,p004,2026-04-14_12h31.06.147,Flanker Compatibility Task,,2026.1.1,120.32955863917877,2026-04-14 12h31.06.440388 +0800
4,square,cong,10,a,2,160,160,0,a,1,0.8177282999968156,None,,,,,0,160,160,152,239.33240290003596,,,,,,,,239.32655510003679,239.81967080000322,240.6417020999943,,,,,,,,,,a,1,0.8177282999968156,None,,,,,,p004,2026-04-14_12h31.06.147,Flanker Compatibility Task,,2026.1.1,120.32955863917877,2026-04-14 12h31.06.440388 +0800
3,square,cong,-10,a,3,161,161,0,l,0,0.936656,None,,,,,0,161,161,99,240.64810510003008,,,,,,,,240.64338810002664,241.1442800000077,242.08249960001558,,,,,,,,,,l,0,0.936656,None,,,,,,p004,2026-04-14_12h31.06.147,Flanker Compatibility Task,,2026.1.1,120.32955863917877,2026-04-14 12h31.06.440388 +0800
1,diamond,cong,-10,l,2,162,162,0,l,1,0.8153117999900132,None,,,,,0,162,162,26,242.08929120004177,,,,,,,,242.0838405000395,242.57597770000575,243.39820920000784,,,,,,,,,,l,1,0.8153117999900132,None,,,,,,p004,2026-04-14_12h31.06.147,Flanker Compatibility Task,,2026.1.1,120.32955863917877,2026-04-14 12h31.06.440388 +0800
1,square,incong,-10,a,3,163,163,0,a,1,0.6120062000118196,None,,,,,0,163,163,15,243.40673440002138,,,,,,,,243.39937380002812,243.9013138000155,244.51579120004317,,,,,,,,,,a,1,0.6120062000118196,None,,,,,,p004,2026-04-14_12h31.06.147,Flanker Compatibility Task,,2026.1.1,120.32955863917877,2026-04-14 12h31.06.440388 +0800
3,diamond,incong,10,l,3,164,164,0,l,1,0.6775128999724984,None,,,,,0,164,164,141,244.52190260001225,,,,,,,,244.51751380000496,245.01796379999723,245.69918729999335,,,,,,,,,,l,1,0.6775128999724984,None,,,,,,p004,2026-04-14_12h31.06.147,Flanker Compatibility Task,,2026.1.1,120.32955863917877,2026-04-14 12h31.06.440388 +0800
2,square,incong,-10,a,4,165,165,0,a,1,0.5118552999920212,None,,,,,0,165,165,64,245.70505420002155,,,,,,,,245.70049070002278,246.19652759999735,246.71465610002633,,,,,,,,,,a,1,0.5118552999920212,None,,,,,,p004,2026-04-14_12h31.06.147,Flanker Compatibility Task,,2026.1.1,120.32955863917877,2026-04-14 12h31.06.440388 +0800
2,diamond,cong,10,l,1,166,166,0,l,1,0.6438785999780521,None,,,,,0,166,166,79,246.72151540004415,,,,,,,,246.7160065000062,247.20860549999634,247.85630400001537,,,,,,,,,,l,1,0.6438785999780521,None,,,,,,p004,2026-04-14_12h31.06.147,Flanker Compatibility Task,,2026.1.1,120.32955863917877,2026-04-14 12h31.06.440388 +0800
1,diamond,incong,-10,l,4,167,167,0,l,1,0.7354581999825314,None,,,,,0,167,167,40,247.8635190000059,,,,,,,,247.85757630004082,248.34986930002924,249.08924080000725,,,,,,,,,,l,1,0.7354581999825314,None,,,,,,p004,2026-04-14_12h31.06.147,Flanker Compatibility Task,,2026.1.1,120.32955863917877,2026-04-14 12h31.06.440388 +0800
2,square,incong,10,a,4,168,168,0,a,1,0.6554783000028692,None,,,,,0,168,168,70,249.09588000003714,,,,,,,,249.0905769999954,249.59217250003712,250.25489760003984,,,,,,,,,,a,1,0.6554783000028692,None,,,,,,p004,2026-04-14_12h31.06.147,Flanker Compatibility Task,,2026.1.1,120.32955863917877,2026-04-14 12h31.06.440388 +0800
2,square,cong,10,a,2,169,169,0,a,1,0.7841569,None,,,,,0,169,169,56,250.2630147000309,,,,,,,,250.25612840004032,250.74809930002084,251.53796230000444,,,,,,,,,,a,1,0.7841569,None,,,,,,p004,2026-04-14_12h31.06.147,Flanker Compatibility Task,,2026.1.1,120.32955863917877,2026-04-14 12h31.06.440388 +0800
2,diamond,cong,10,l,0,170,170,0,l,1,0.7809274999890476,None,,,,,0,170,170,78,251.54581620002864,,,,,,,,251.53922040003818,252.03045100002782,252.81229400000302,,,,,,,,,,l,1,0.7809274999890476,None,,,,,,p004,2026-04-14_12h31.06.147,Flanker Compatibility Task,,2026.1.1,120.32955863917877,2026-04-14 12h31.06.440388 +0800
2,diamond,incong,10,l,0,171,171,0,l,1,0.7309859999804758,None,,,,,0,171,171,90,252.8202214000048,,,,,,,,252.81324390001828,253.30785530002322,254.04699619999155,,,,,,,,,,l,1,0.7309859999804758,None,,,,,,p004,2026-04-14_12h31.06.147,Flanker Compatibility Task,,2026.1.1,120.32955863917877,2026-04-14 12h31.06.440388 +0800
4,diamond,cong,-10,l,1,172,172,0,l,1,0.6504794000065885,None,,,,,0,172,172,169,254.05385240004398,,,,,,,,254.04867819999345,254.55038790003164,255.2044695999939,,,,,,,,,,l,1,0.6504794000065885,None,,,,,,p004,2026-04-14_12h31.06.147,Flanker Compatibility Task,,2026.1.1,120.32955863917877,2026-04-14 12h31.06.440388 +0800
1,diamond,incong,10,l,0,173,173,0,l,1,0.6213123999768868,None,,,,,0,173,173,42,255.21113860001788,,,,,,,,255.20577990001766,255.69883280002978,256.3217821000144,,,,,,,,,,l,1,0.6213123999768868,None,,,,,,p004,2026-04-14_12h31.06.147,Flanker Compatibility Task,,2026.1.1,120.32955863917877,2026-04-14 12h31.06.440388 +0800
4,square,incong,-10,a,2,174,174,0,a,1,0.5312899,None,,,,,0,174,174,158,256.32743410003604,,,,,,,,256.3229810000048,256.8243038000073,257.36127679998754,,,,,,,,,,a,1,0.5312899,None,,,,,,p004,2026-04-14_12h31.06.147,Flanker Compatibility Task,,2026.1.1,120.32955863917877,2026-04-14 12h31.06.440388 +0800
3,diamond,incong,-10,l,2,175,175,0,l,1,0.8384100999683142,None,,,,,0,175,175,134,257.37001060001785,,,,,,,,257.36266039998736,257.8636577000143,258.7033708,,,,,,,,,,l,1,0.8384100999683142,None,,,,,,p004,2026-04-14_12h31.06.147,Flanker Compatibility Task,,2026.1.1,120.32955863917877,2026-04-14 12h31.06.440388 +0800
4,square,incong,10,a,4,176,176,0,a,1,0.7284791999845766,None,,,,,0,176,176,166,258.7100664000027,,,,,,,,258.70496360003017,259.19800490001217,259.92872570001055,,,,,,,,,,a,1,0.7284791999845766,None,,,,,,p004,2026-04-14_12h31.06.147,Flanker Compatibility Task,,2026.1.1,120.32955863917877,2026-04-14 12h31.06.440388 +0800
2,square,incong,10,a,0,177,177,0,a,1,0.48490450001554564,None,,,,,0,177,177,66,259.9353484000312,,,,,,,,259.9304598000017,260.43061540002236,260.9206056999974,,,,,,,,,,a,1,0.48490450001554564,None,,,,,,p004,2026-04-14_12h31.06.147,Flanker Compatibility Task,,2026.1.1,120.32955863917877,2026-04-14 12h31.06.440388 +0800
4,square,incong,-10,a,3,178,178,0,a,1,0.9939129999838769,None,,,,,0,178,178,159,260.9271910000243,,,,,,,,260.9224707999965,261.4241947000264,262.41905740002403,,,,,,,,,,a,1,0.9939129999838769,None,,,,,,p004,2026-04-14_12h31.06.147,Flanker Compatibility Task,,2026.1.1,120.32955863917877,2026-04-14 12h31.06.440388 +0800
3,diamond,cong,10,l,3,179,179,0,l,1,1.1136418000096455,None,,,,,0,179,179,129,262.4259631999885,,,,,,,,262.4204787000199,262.91359559999546,264.03452849999303,,,,,,,,,,l,1,1.1136418000096455,None,,,,,,p004,2026-04-14_12h31.06.147,Flanker Compatibility Task,,2026.1.1,120.32955863917877,2026-04-14 12h31.06.440388 +0800
1,diamond,cong,10,l,5,180,180,0,l,1,0.4873454,None,,,,,0,180,180,35,264.04208250000374,,,,,,,,264.03577389998827,264.52915439999197,265.0190223000245,,,,,,,,,,l,1,0.4873454,None,,,,,,p004,2026-04-14_12h31.06.147,Flanker Compatibility Task,,2026.1.1,120.32955863917877,2026-04-14 12h31.06.440388 +0800
2,diamond,incong,-10,l,3,181,181,0,l,1,0.5657953000045381,None,,,,,0,181,181,87,265.02644590003183,,,,,,,,265.02035490004346,265.52157020004233,266.09336850000545,,,,,,,,,,l,1,0.5657953000045381,None,,,,,,p004,2026-04-14_12h31.06.147,Flanker Compatibility Task,,2026.1.1,120.32955863917877,2026-04-14 12h31.06.440388 +0800
1,square,incong,-10,a,1,182,182,0,a,1,0.6346256000106223,None,,,,,0,182,182,13,266.1000151000335,,,,,,,,266.0943047000328,266.5961005000281,267.2339993999922,,,,,,,,,,a,1,0.6346256000106223,None,,,,,,p004,2026-04-14_12h31.06.147,Flanker Compatibility Task,,2026.1.1,120.32955863917877,2026-04-14 12h31.06.440388 +0800
4,square,incong,-10,a,5,183,183,0,a,1,0.8964031999930739,None,,,,,0,183,183,161,267.2421011000406,,,,,,,,267.23551560001215,267.72956489998614,268.62682730000233,,,,,,,,,,a,1,0.8964031999930739,None,,,,,,p004,2026-04-14_12h31.06.147,Flanker Compatibility Task,,2026.1.1,120.32955863917877,2026-04-14 12h31.06.440388 +0800
3,diamond,incong,10,l,1,184,184,0,l,1,0.83286,None,,,,,0,184,184,139,268.63277120003477,,,,,,,,268.6282721000025,269.1293272000039,269.9668156999978,,,,,,,,,,l,1,0.83286,None,,,,,,p004,2026-04-14_12h31.06.147,Flanker Compatibility Task,,2026.1.1,120.32955863917877,2026-04-14 12h31.06.440388 +0800
2,square,cong,10,a,5,185,185,0,a,1,0.6328343999921344,None,,,,,0,185,185,59,269.97491789999185,,,,,,,,269.9680537999957,270.4606300999876,271.09971720003523,,,,,,,,,,a,1,0.6328343999921344,None,,,,,,p004,2026-04-14_12h31.06.147,Flanker Compatibility Task,,2026.1.1,120.32955863917877,2026-04-14 12h31.06.440388 +0800
2,square,cong,-10,a,1,186,186,0,a,1,0.48657749994890764,None,,,,,0,186,186,49,271.1082433999982,,,,,,,,271.1012098999927,271.59488210000563,272.0834177000215,,,,,,,,,,a,1,0.48657749994890764,None,,,,,,p004,2026-04-14_12h31.06.147,Flanker Compatibility Task,,2026.1.1,120.32955863917877,2026-04-14 12h31.06.440388 +0800
2,square,incong,-10,a,0,187,187,0,l,0,0.6178333000279963,None,,,,,0,187,187,60,272.09093519998714,,,,,,,,272.08440420002444,272.57747030002065,273.2000674,,,,,,,,,,l,0,0.6178333000279963,None,,,,,,p004,2026-04-14_12h31.06.147,Flanker Compatibility Task,,2026.1.1,120.32955863917877,2026-04-14 12h31.06.440388 +0800
3,square,incong,-10,a,0,188,188,0,a,1,0.5573972999700345,None,,,,,0,188,188,108,273.20766910002567,,,,,,,,273.2014282000018,273.7013489000383,274.25956450001104,,,,,,,,,,a,1,0.5573972999700345,None,,,,,,p004,2026-04-14_12h31.06.147,Flanker Compatibility Task,,2026.1.1,120.32955863917877,2026-04-14 12h31.06.440388 +0800
1,square,cong,-10,a,2,189,189,0,a,1,0.45145650004269555,None,,,,,0,189,189,2,274.2653719999944,,,,,,,,274.2608983000391,274.76074940001126,275.21654450002825,,,,,,,,,,a,1,0.45145650004269555,None,,,,,,p004,2026-04-14_12h31.06.147,Flanker Compatibility Task,,2026.1.1,120.32955863917877,2026-04-14 12h31.06.440388 +0800
3,diamond,incong,-10,l,4,190,190,0,l,1,0.9365367999998853,None,,,,,0,190,190,136,275.2235440000077,,,,,,,,275.2180652000243,275.71933360002004,276.6581967000384,,,,,,,,,,l,1,0.9365367999998853,None,,,,,,p004,2026-04-14_12h31.06.147,Flanker Compatibility Task,,2026.1.1,120.32955863917877,2026-04-14 12h31.06.440388 +0800
1,diamond,cong,-10,l,0,191,191,0,l,1,0.5094181000022218,None,,,,,0,191,191,24,276.6650873000035,,,,,,,,276.6594476000173,277.16008520004107,277.6726859000046,,,,,,,,,,l,1,0.5094181000022218,None,,,,,,p004,2026-04-14_12h31.06.147,Flanker Compatibility Task,,2026.1.1,120.32955863917877,2026-04-14 12h31.06.440388 +0800
,,,,,,,,,,,,,,,,,,,,,,,,,,,,,,,,,,,,,,,,,,,,,277.67287770000985,278.83173249999527,space,1.150712900038343,None,p004,2026-04-14_12h31.06.147,Flanker Compatibility Task,,2026.1.1,120.32955863917877,2026-04-14 12h31.06.440388 +0800
