difficulty,target_type,condition,dist_pos_x,ans,target_idx,thisN,thisTrialN,thisRepN,Anskey.keys,Anskey.corr,Anskey.rt,Anskey.duration,Prac_Loop.thisRepN,Prac_Loop.thisTrialN,Prac_Loop.thisN,Prac_Loop.thisIndex,Trials_Loop.thisRepN,Trials_Loop.thisTrialN,Trials_Loop.thisN,Trials_Loop.thisIndex,thisRow.t,notes,piloting,Intro.started,Intro.stopped,Intro_keyresp.keys,Intro_keyresp.rt,Intro_keyresp.duration,Trial_Routine.started,Anskey.started,Trial_Routine.stopped,Prac_Loop.Anskey.keys,Prac_Loop.Anskey.corr,Prac_Loop.Anskey.rt,Prac_Loop.Anskey.duration,Ready.started,Ready.stopped,Ready_keyresp.keys,Ready_keyresp.rt,Ready_keyresp.duration,Trials_Loop.Anskey.keys,Trials_Loop.Anskey.corr,Trials_Loop.Anskey.rt,Trials_Loop.Anskey.duration,ThankYou.started,ThankYou.stopped,Thanks_keyresp.keys,Thanks_keyresp.rt,Thanks_keyresp.duration,participant,date,expName,expVersion,psychopyVersion,frameRate,expStart
,,,,,,,,,,,,,,,,,,,,,,,FALSE,0.0078503,2.7833059,space,2.2775629,None,,,,,,,,,,,,,,,,,,,,,,p004,2026-04-14_12h31.06.147,Flanker Compatibility Task,,2026.1.1,120.3295586,2026-04-14 12h31.06.440388 +0800
1,diamond,incong,-10,l,5,0,0,0,l,1,1.0222104,None,0,0,0,3,,,,,2.8084011,,,,,,,,2.7987396,3.2792247,4.3093682,l,1,1.0222104,None,,,,,,,,,,,,,,,p004,2026-04-14_12h31.06.147,Flanker Compatibility Task,,2026.1.1,120.3295586,2026-04-14 12h31.06.440388 +0800
3,diamond,cong,10,l,1,1,1,0,l,1,1.2920154,None,0,1,1,10,,,,,4.3157273,,,,,,,,4.3108102,4.8119231,6.1082466,l,1,1.2920154,None,,,,,,,,,,,,,,,p004,2026-04-14_12h31.06.147,Flanker Compatibility Task,,2026.1.1,120.3295586,2026-04-14 12h31.06.440388 +0800
4,square,incong,-10,a,1,2,2,0,a,1,1.0731806,None,0,2,2,13,,,,,6.1158662,,,,,,,,6.1098172,6.6029877,7.6824428,a,1,1.0731806,None,,,,,,,,,,,,,,,p004,2026-04-14_12h31.06.147,Flanker Compatibility Task,,2026.1.1,120.3295586,2026-04-14 12h31.06.440388 +0800
3,square,incong,10,a,5,3,3,0,a,1,1.0553294,None,0,3,3,9,,,,,7.6901387,,,,,,,,7.6837805,8.1782008,9.2410176,a,1,1.0553294,None,,,,,,,,,,,,,,,p004,2026-04-14_12h31.06.147,Flanker Compatibility Task,,2026.1.1,120.3295586,2026-04-14 12h31.06.440388 +0800
4,diamond,cong,-10,l,4,4,4,0,l,1,1.4586746,None,0,4,4,14,,,,,9.2481216,,,,,,,,9.2425959,9.7365143,11.197819,l,1,1.4586746,None,,,,,,,,,,,,,,,p004,2026-04-14_12h31.06.147,Flanker Compatibility Task,,2026.1.1,120.3295586,2026-04-14 12h31.06.440388 +0800
1,square,incong,10,a,3,5,5,0,a,1,0.9011786,None,0,5,5,1,,,,,11.2055209,,,,,,,,11.1990172,11.6924451,12.5985609,a,1,0.9011786,None,,,,,,,,,,,,,,,p004,2026-04-14_12h31.06.147,Flanker Compatibility Task,,2026.1.1,120.3295586,2026-04-14 12h31.06.440388 +0800
2,diamond,incong,10,l,0,6,6,0,l,1,0.8936433,None,0,6,6,7,,,,,12.6055186,,,,,,,,12.5998787,13.099005,13.9975617,l,1,0.8936433,None,,,,,,,,,,,,,,,p004,2026-04-14_12h31.06.147,Flanker Compatibility Task,,2026.1.1,120.3295586,2026-04-14 12h31.06.440388 +0800
3,diamond,incong,-10,l,4,7,7,0,l,1,1.1471042,None,0,7,7,11,,,,,14.0048589,,,,,,,,13.998969,14.4922664,15.6470593,l,1,1.1471042,None,,,,,,,,,,,,,,,p004,2026-04-14_12h31.06.147,Flanker Compatibility Task,,2026.1.1,120.3295586,2026-04-14 12h31.06.440388 +0800
1,square,cong,-10,a,1,8,8,0,a,1,0.6023704,None,0,8,8,0,,,,,15.6549473,,,,,,,,15.6482303,16.1410784,16.7468769,a,1,0.6023704,None,,,,,,,,,,,,,,,p004,2026-04-14_12h31.06.147,Flanker Compatibility Task,,2026.1.1,120.3295586,2026-04-14 12h31.06.440388 +0800
3,square,cong,-10,a,1,9,9,0,a,1,0.7712426,None,0,9,9,8,,,,,16.7542195,,,,,,,,16.7479501,17.2419166,18.021258,a,1,0.7712426,None,,,,,,,,,,,,,,,p004,2026-04-14_12h31.06.147,Flanker Compatibility Task,,2026.1.1,120.3295586,2026-04-14 12h31.06.440388 +0800
1,diamond,cong,10,l,0,10,10,0,l,1,0.6845999,None,0,10,10,2,,,,,18.0292023,,,,,,,,18.0223904,18.5156389,19.2054368,l,1,0.6845999,None,,,,,,,,,,,,,,,p004,2026-04-14_12h31.06.147,Flanker Compatibility Task,,2026.1.1,120.3295586,2026-04-14 12h31.06.440388 +0800
4,diamond,incong,10,l,2,11,11,0,l,1,1.2623532,None,0,11,11,15,,,,,19.211797,,,,,,,,19.2069973,19.7074758,20.9717045,l,1,1.2623532,None,,,,,,,,,,,,,,,p004,2026-04-14_12h31.06.147,Flanker Compatibility Task,,2026.1.1,120.3295586,2026-04-14 12h31.06.440388 +0800
2,square,incong,-10,a,2,12,12,0,a,1,0.742913,None,0,12,12,5,,,,,20.9779838,,,,,,,,20.9730554,21.471123,22.2210657,a,1,0.742913,None,,,,,,,,,,,,,,,p004,2026-04-14_12h31.06.147,Flanker Compatibility Task,,2026.1.1,120.3295586,2026-04-14 12h31.06.440388 +0800
2,diamond,cong,-10,l,3,13,13,0,l,1,0.8643426,None,0,13,13,6,,,,,22.2270002,,,,,,,,22.2225178,22.7208375,23.5869618,l,1,0.8643426,None,,,,,,,,,,,,,,,p004,2026-04-14_12h31.06.147,Flanker Compatibility Task,,2026.1.1,120.3295586,2026-04-14 12h31.06.440388 +0800
2,square,cong,10,a,5,14,14,0,a,1,0.6326286,None,0,14,14,4,,,,,23.5935731,,,,,,,,23.5882799,24.0813549,24.7191001,a,1,0.6326286,None,,,,,,,,,,,,,,,p004,2026-04-14_12h31.06.147,Flanker Compatibility Task,,2026.1.1,120.3295586,2026-04-14 12h31.06.440388 +0800
4,square,cong,10,a,5,15,15,0,a,1,0.6744037,None,0,15,15,12,,,,,24.7265968,,,,,,,,24.7206014,25.2138803,25.8934406,a,1,0.6744037,None,,,,,,,,,,,,,,,p004,2026-04-14_12h31.06.147,Flanker Compatibility Task,,2026.1.1,120.3295586,2026-04-14 12h31.06.440388 +0800
,,,,,,,,,,,,,,,,,,,,,,,,,,,,,,,,,,,,25.8936279,32.0083938,space,5.6222988,None,,,,,,,,,,p004,2026-04-14_12h31.06.147,Flanker Compatibility Task,,2026.1.1,120.3295586,2026-04-14 12h31.06.440388 +0800
1,diamond,cong,-10,l,4,0,0,0,l,1,0.6906489,None,,,,,0,0,0,28,32.0498664,,,,,,,,32.0459352,32.5037105,33.2007363,,,,,,,,,,l,1,0.6906489,None,,,,,,p004,2026-04-14_12h31.06.147,Flanker Compatibility Task,,2026.1.1,120.3295586,2026-04-14 12h31.06.440388 +0800
2,square,cong,-10,a,0,1,1,0,a,1,0.5454222,None,,,,,0,1,1,48,33.2083472,,,,,,,,33.2020307,33.6961578,34.2495422,,,,,,,,,,a,1,0.5454222,None,,,,,,p004,2026-04-14_12h31.06.147,Flanker Compatibility Task,,2026.1.1,120.3295586,2026-04-14 12h31.06.440388 +0800
2,diamond,incong,-10,l,5,2,2,0,l,1,0.6587429,None,,,,,0,2,2,89,34.2572296,,,,,,,,34.2505915,34.7442141,35.4081968,,,,,,,,,,l,1,0.6587429,None,,,,,,p004,2026-04-14_12h31.06.147,Flanker Compatibility Task,,2026.1.1,120.3295586,2026-04-14 12h31.06.440388 +0800
3,diamond,cong,10,l,5,3,3,0,l,1,0.5853818,None,,,,,0,3,3,131,35.4155128,,,,,,,,35.4098314,35.9050259,36.4911267,,,,,,,,,,l,1,0.5853818,None,,,,,,p004,2026-04-14_12h31.06.147,Flanker Compatibility Task,,2026.1.1,120.3295586,2026-04-14 12h31.06.440388 +0800
2,square,incong,10,a,1,4,4,0,a,1,0.5718218,None,,,,,0,4,4,67,36.4987655,,,,,,,,36.4922186,36.986296,37.5587495,,,,,,,,,,a,1,0.5718218,None,,,,,,p004,2026-04-14_12h31.06.147,Flanker Compatibility Task,,2026.1.1,120.3295586,2026-04-14 12h31.06.440388 +0800
2,diamond,incong,-10,l,1,5,5,0,l,1,0.5800349,None,,,,,0,5,5,85,37.5657328,,,,,,,,37.5599855,38.0609214,38.6421263,,,,,,,,,,l,1,0.5800349,None,,,,,,p004,2026-04-14_12h31.06.147,Flanker Compatibility Task,,2026.1.1,120.3295586,2026-04-14 12h31.06.440388 +0800
4,diamond,incong,10,l,2,6,6,0,l,1,1.0801741,None,,,,,0,6,6,188,38.6490021,,,,,,,,38.643765,39.1423983,40.2254156,,,,,,,,,,l,1,1.0801741,None,,,,,,p004,2026-04-14_12h31.06.147,Flanker Compatibility Task,,2026.1.1,120.3295586,2026-04-14 12h31.06.440388 +0800
1,diamond,cong,10,l,3,7,7,0,a,0,0.8991028,None,,,,,0,7,7,33,40.2321043,,,,,,,,40.2267353,40.7272084,41.6325222,,,,,,,,,,a,0,0.8991028,None,,,,,,p004,2026-04-14_12h31.06.147,Flanker Compatibility Task,,2026.1.1,120.3295586,2026-04-14 12h31.06.440388 +0800
2,square,cong,10,a,0,8,8,0,a,1,0.8244439,None,,,,,0,8,8,54,41.6397456,,,,,,,,41.6338199,42.1267072,42.9574116,,,,,,,,,,a,1,0.8244439,None,,,,,,p004,2026-04-14_12h31.06.147,Flanker Compatibility Task,,2026.1.1,120.3295586,2026-04-14 12h31.06.440388 +0800
1,diamond,incong,-10,l,0,9,9,0,l,1,1.0414233,None,,,,,0,9,9,36,42.9646259,,,,,,,,42.9587177,43.4617162,44.5065981,,,,,,,,,,l,1,1.0414233,None,,,,,,p004,2026-04-14_12h31.06.147,Flanker Compatibility Task,,2026.1.1,120.3295586,2026-04-14 12h31.06.440388 +0800
3,square,cong,-10,a,1,10,10,0,a,1,0.7679784,None,,,,,0,10,10,97,44.5140896,,,,,,,,44.507707,45.0013645,45.7825758,,,,,,,,,,a,1,0.7679784,None,,,,,,p004,2026-04-14_12h31.06.147,Flanker Compatibility Task,,2026.1.1,120.3295586,2026-04-14 12h31.06.440388 +0800
4,diamond,cong,10,l,1,11,11,0,l,1,0.7911446,None,,,,,0,11,11,175,45.7972316,,,,,,,,45.7857664,46.2848956,47.0800438,,,,,,,,,,l,1,0.7911446,None,,,,,,p004,2026-04-14_12h31.06.147,Flanker Compatibility Task,,2026.1.1,120.3295586,2026-04-14 12h31.06.440388 +0800
4,diamond,cong,-10,l,0,12,12,0,l,1,1.4371141,None,,,,,0,12,12,168,47.087656,,,,,,,,47.0816566,47.5744191,49.0136021,,,,,,,,,,l,1,1.4371141,None,,,,,,p004,2026-04-14_12h31.06.147,Flanker Compatibility Task,,2026.1.1,120.3295586,2026-04-14 12h31.06.440388 +0800
1,diamond,incong,10,l,4,13,13,0,l,1,0.8883134,None,,,,,0,13,13,46,49.0214754,,,,,,,,49.0147833,49.5070614,50.3972734,,,,,,,,,,l,1,0.8883134,None,,,,,,p004,2026-04-14_12h31.06.147,Flanker Compatibility Task,,2026.1.1,120.3295586,2026-04-14 12h31.06.440388 +0800
4,square,cong,10,a,4,14,14,0,a,1,0.901206,None,,,,,0,14,14,154,50.4044514,,,,,,,,50.3988307,50.8983041,51.8050227,,,,,,,,,,a,1,0.901206,None,,,,,,p004,2026-04-14_12h31.06.147,Flanker Compatibility Task,,2026.1.1,120.3295586,2026-04-14 12h31.06.440388 +0800
4,diamond,cong,-10,l,5,15,15,0,l,1,0.806076,None,,,,,0,15,15,173,51.8126794,,,,,,,,51.8066429,52.3077639,53.1205439,,,,,,,,,,l,1,0.806076,None,,,,,,p004,2026-04-14_12h31.06.147,Flanker Compatibility Task,,2026.1.1,120.3295586,2026-04-14 12h31.06.440388 +0800
4,diamond,incong,-10,l,2,16,16,0,l,1,0.860998,None,,,,,0,16,16,182,53.1280681,,,,,,,,53.1219854,53.622153,54.4873205,,,,,,,,,,l,1,0.860998,None,,,,,,p004,2026-04-14_12h31.06.147,Flanker Compatibility Task,,2026.1.1,120.3295586,2026-04-14 12h31.06.440388 +0800
3,diamond,cong,10,l,0,17,17,0,l,1,0.6166559,None,,,,,0,17,17,126,54.4951696,,,,,,,,54.488656,54.9882755,55.6125625,,,,,,,,,,l,1,0.6166559,None,,,,,,p004,2026-04-14_12h31.06.147,Flanker Compatibility Task,,2026.1.1,120.3295586,2026-04-14 12h31.06.440388 +0800
3,square,incong,-10,a,2,18,18,0,a,1,0.5722667,None,,,,,0,18,18,110,55.6199051,,,,,,,,55.6140449,56.1106007,56.6870186,,,,,,,,,,a,1,0.5722667,None,,,,,,p004,2026-04-14_12h31.06.147,Flanker Compatibility Task,,2026.1.1,120.3295586,2026-04-14 12h31.06.440388 +0800
2,diamond,cong,-10,l,0,19,19,0,l,1,0.7157745,None,,,,,0,19,19,72,56.6943122,,,,,,,,56.6882704,57.1881174,57.9107102,,,,,,,,,,l,1,0.7157745,None,,,,,,p004,2026-04-14_12h31.06.147,Flanker Compatibility Task,,2026.1.1,120.3295586,2026-04-14 12h31.06.440388 +0800
2,square,incong,-10,a,2,20,20,0,a,1,1.1718871,None,,,,,0,20,20,62,57.9190237,,,,,,,,57.9121203,58.4061382,59.5864663,,,,,,,,,,a,1,1.1718871,None,,,,,,p004,2026-04-14_12h31.06.147,Flanker Compatibility Task,,2026.1.1,120.3295586,2026-04-14 12h31.06.440388 +0800
4,square,cong,-10,a,4,21,21,0,l,0,0.8460524,None,,,,,0,21,21,148,59.5940428,,,,,,,,59.5880384,60.0905592,60.9438878,,,,,,,,,,l,0,0.8460524,None,,,,,,p004,2026-04-14_12h31.06.147,Flanker Compatibility Task,,2026.1.1,120.3295586,2026-04-14 12h31.06.440388 +0800
2,diamond,incong,10,l,4,22,22,0,l,1,1.0456997,None,,,,,0,22,22,94,60.950967,,,,,,,,60.9449563,61.4477523,62.4940956,,,,,,,,,,l,1,1.0456997,None,,,,,,p004,2026-04-14_12h31.06.147,Flanker Compatibility Task,,2026.1.1,120.3295586,2026-04-14 12h31.06.440388 +0800
1,square,incong,-10,a,0,23,23,0,a,1,0.5648164,None,,,,,0,23,23,12,62.5005743,,,,,,,,62.4952712,62.9941253,63.5599462,,,,,,,,,,a,1,0.5648164,None,,,,,,p004,2026-04-14_12h31.06.147,Flanker Compatibility Task,,2026.1.1,120.3295586,2026-04-14 12h31.06.440388 +0800
3,diamond,cong,-10,l,2,24,24,0,l,1,0.9247484,None,,,,,0,24,24,122,63.5669417,,,,,,,,63.5614263,64.055617,64.9841452,,,,,,,,,,l,1,0.9247484,None,,,,,,p004,2026-04-14_12h31.06.147,Flanker Compatibility Task,,2026.1.1,120.3295586,2026-04-14 12h31.06.440388 +0800
1,square,cong,10,a,1,25,25,0,a,1,0.6728237,None,,,,,0,25,25,7,64.9914859,,,,,,,,64.9852053,65.4786516,66.1589216,,,,,,,,,,a,1,0.6728237,None,,,,,,p004,2026-04-14_12h31.06.147,Flanker Compatibility Task,,2026.1.1,120.3295586,2026-04-14 12h31.06.440388 +0800
3,diamond,incong,10,l,0,26,26,0,l,1,0.7414382,None,,,,,0,26,26,138,66.1662724,,,,,,,,66.1602571,66.6555226,67.4002692,,,,,,,,,,l,1,0.7414382,None,,,,,,p004,2026-04-14_12h31.06.147,Flanker Compatibility Task,,2026.1.1,120.3295586,2026-04-14 12h31.06.440388 +0800
3,square,incong,-10,a,4,27,27,0,a,1,0.6062657,None,,,,,0,27,27,112,67.4076903,,,,,,,,67.4015963,67.8954544,68.508147,,,,,,,,,,a,1,0.6062657,None,,,,,,p004,2026-04-14_12h31.06.147,Flanker Compatibility Task,,2026.1.1,120.3295586,2026-04-14 12h31.06.440388 +0800
3,square,incong,10,a,2,28,28,0,a,1,0.824084,None,,,,,0,28,28,116,68.5168125,,,,,,,,68.5095056,69.002047,69.8335242,,,,,,,,,,a,1,0.824084,None,,,,,,p004,2026-04-14_12h31.06.147,Flanker Compatibility Task,,2026.1.1,120.3295586,2026-04-14 12h31.06.440388 +0800
2,diamond,cong,-10,l,5,29,29,0,l,1,0.6676011,None,,,,,0,29,29,77,69.8408608,,,,,,,,69.8348829,70.3279454,70.9990674,,,,,,,,,,l,1,0.6676011,None,,,,,,p004,2026-04-14_12h31.06.147,Flanker Compatibility Task,,2026.1.1,120.3295586,2026-04-14 12h31.06.440388 +0800
1,square,incong,10,a,4,30,30,0,a,1,0.8985341,None,,,,,0,30,30,22,71.0064468,,,,,,,,71.0002903,71.4932279,72.400277,,,,,,,,,,a,1,0.8985341,None,,,,,,p004,2026-04-14_12h31.06.147,Flanker Compatibility Task,,2026.1.1,120.3295586,2026-04-14 12h31.06.440388 +0800
1,square,incong,10,a,3,31,31,0,a,1,0.8262677,None,,,,,0,31,31,21,72.4073209,,,,,,,,72.4018087,72.9000276,73.731699,,,,,,,,,,a,1,0.8262677,None,,,,,,p004,2026-04-14_12h31.06.147,Flanker Compatibility Task,,2026.1.1,120.3295586,2026-04-14 12h31.06.440388 +0800
1,diamond,incong,10,l,3,32,32,0,l,1,0.5928879,None,,,,,0,32,32,45,73.7395886,,,,,,,,73.7328853,74.226262,74.8233217,,,,,,,,,,l,1,0.5928879,None,,,,,,p004,2026-04-14_12h31.06.147,Flanker Compatibility Task,,2026.1.1,120.3295586,2026-04-14 12h31.06.440388 +0800
4,square,incong,-10,a,1,33,33,0,a,1,0.6042674,None,,,,,0,33,33,157,74.8308907,,,,,,,,74.8251031,75.3194486,75.9313144,,,,,,,,,,a,1,0.6042674,None,,,,,,p004,2026-04-14_12h31.06.147,Flanker Compatibility Task,,2026.1.1,120.3295586,2026-04-14 12h31.06.440388 +0800
3,square,incong,10,a,1,34,34,0,a,1,0.5274797,None,,,,,0,34,34,115,75.9388562,,,,,,,,75.9323922,76.4274054,76.956877,,,,,,,,,,a,1,0.5274797,None,,,,,,p004,2026-04-14_12h31.06.147,Flanker Compatibility Task,,2026.1.1,120.3295586,2026-04-14 12h31.06.440388 +0800
3,square,cong,-10,a,4,35,35,0,a,1,0.6665871,None,,,,,0,35,35,100,76.9641126,,,,,,,,76.9583278,77.459424,78.1310297,,,,,,,,,,a,1,0.6665871,None,,,,,,p004,2026-04-14_12h31.06.147,Flanker Compatibility Task,,2026.1.1,120.3295586,2026-04-14 12h31.06.440388 +0800
3,square,cong,-10,a,0,36,36,0,a,1,0.5189522,None,,,,,0,36,36,96,78.138204,,,,,,,,78.1323426,78.6351553,79.1559543,,,,,,,,,,a,1,0.5189522,None,,,,,,p004,2026-04-14_12h31.06.147,Flanker Compatibility Task,,2026.1.1,120.3295586,2026-04-14 12h31.06.440388 +0800
2,diamond,incong,10,l,2,37,37,0,l,1,0.7385121,None,,,,,0,37,37,92,79.1632242,,,,,,,,79.1573243,79.6512548,80.3974988,,,,,,,,,,l,1,0.7385121,None,,,,,,p004,2026-04-14_12h31.06.147,Flanker Compatibility Task,,2026.1.1,120.3295586,2026-04-14 12h31.06.440388 +0800
3,diamond,cong,10,l,4,38,38,0,l,1,1.119904,None,,,,,0,38,38,130,80.4048876,,,,,,,,80.3989787,80.8920292,82.0138906,,,,,,,,,,l,1,1.119904,None,,,,,,p004,2026-04-14_12h31.06.147,Flanker Compatibility Task,,2026.1.1,120.3295586,2026-04-14 12h31.06.440388 +0800
2,diamond,cong,-10,l,3,39,39,0,l,1,0.8532063,None,,,,,0,39,39,75,82.020781,,,,,,,,82.0152246,82.5171578,83.3720532,,,,,,,,,,l,1,0.8532063,None,,,,,,p004,2026-04-14_12h31.06.147,Flanker Compatibility Task,,2026.1.1,120.3295586,2026-04-14 12h31.06.440388 +0800
3,diamond,cong,10,l,1,40,40,0,l,1,1.3195584,None,,,,,0,40,40,127,83.3789064,,,,,,,,83.3735348,83.8748177,85.1973623,,,,,,,,,,l,1,1.3195584,None,,,,,,p004,2026-04-14_12h31.06.147,Flanker Compatibility Task,,2026.1.1,120.3295586,2026-04-14 12h31.06.440388 +0800
2,diamond,cong,10,l,5,41,41,0,l,1,0.5385348,None,,,,,0,41,41,83,85.2048625,,,,,,,,85.1988556,85.6988013,86.2453488,,,,,,,,,,l,1,0.5385348,None,,,,,,p004,2026-04-14_12h31.06.147,Flanker Compatibility Task,,2026.1.1,120.3295586,2026-04-14 12h31.06.440388 +0800
3,diamond,incong,10,l,4,42,42,0,l,1,0.8279177,None,,,,,0,42,42,142,86.2530945,,,,,,,,86.2466868,86.7406463,87.5710743,,,,,,,,,,l,1,0.8279177,None,,,,,,p004,2026-04-14_12h31.06.147,Flanker Compatibility Task,,2026.1.1,120.3295586,2026-04-14 12h31.06.440388 +0800
3,square,cong,10,a,1,43,43,0,a,1,0.5072953,None,,,,,0,43,43,103,87.5779524,,,,,,,,87.5721161,88.0660009,88.5783263,,,,,,,,,,a,1,0.5072953,None,,,,,,p004,2026-04-14_12h31.06.147,Flanker Compatibility Task,,2026.1.1,120.3295586,2026-04-14 12h31.06.440388 +0800
2,diamond,cong,10,l,2,44,44,0,l,1,0.652274,None,,,,,0,44,44,80,88.5864678,,,,,,,,88.5795563,89.0727799,89.7290544,,,,,,,,,,l,1,0.652274,None,,,,,,p004,2026-04-14_12h31.06.147,Flanker Compatibility Task,,2026.1.1,120.3295586,2026-04-14 12h31.06.440388 +0800
4,diamond,incong,10,l,1,45,45,0,l,1,0.6644284,None,,,,,0,45,45,187,89.7354853,,,,,,,,89.7306041,90.2325581,90.9028604,,,,,,,,,,l,1,0.6644284,None,,,,,,p004,2026-04-14_12h31.06.147,Flanker Compatibility Task,,2026.1.1,120.3295586,2026-04-14 12h31.06.440388 +0800
2,square,incong,-10,a,5,46,46,0,a,1,0.5247035,None,,,,,0,46,46,65,90.9108432,,,,,,,,90.9041197,91.3977685,91.9271965,,,,,,,,,,a,1,0.5247035,None,,,,,,p004,2026-04-14_12h31.06.147,Flanker Compatibility Task,,2026.1.1,120.3295586,2026-04-14 12h31.06.440388 +0800
2,diamond,cong,-10,l,4,47,47,0,l,1,0.8226265,None,,,,,0,47,47,76,91.9351626,,,,,,,,91.9284463,92.4225749,93.2533243,,,,,,,,,,l,1,0.8226265,None,,,,,,p004,2026-04-14_12h31.06.147,Flanker Compatibility Task,,2026.1.1,120.3295586,2026-04-14 12h31.06.440388 +0800
3,diamond,incong,10,l,5,48,48,0,l,1,0.6623904,None,,,,,0,48,48,143,93.2595014,,,,,,,,93.2547827,93.755151,94.419415,,,,,,,,,,l,1,0.6623904,None,,,,,,p004,2026-04-14_12h31.06.147,Flanker Compatibility Task,,2026.1.1,120.3295586,2026-04-14 12h31.06.440388 +0800
2,square,incong,10,a,2,49,49,0,a,1,0.6586523,None,,,,,0,49,49,68,94.425907,,,,,,,,94.420759,94.921468,95.5865293,,,,,,,,,,a,1,0.6586523,None,,,,,,p004,2026-04-14_12h31.06.147,Flanker Compatibility Task,,2026.1.1,120.3295586,2026-04-14 12h31.06.440388 +0800
1,square,incong,10,a,1,50,50,0,a,1,1.1745397,None,,,,,0,50,50,19,95.593416,,,,,,,,95.5878076,96.0873906,97.2682365,,,,,,,,,,a,1,1.1745397,None,,,,,,p004,2026-04-14_12h31.06.147,Flanker Compatibility Task,,2026.1.1,120.3295586,2026-04-14 12h31.06.440388 +0800
3,diamond,incong,-10,l,5,51,51,0,l,1,0.8479607,None,,,,,0,51,51,137,97.2758501,,,,,,,,97.2695912,97.7626666,98.6169966,,,,,,,,,,l,1,0.8479607,None,,,,,,p004,2026-04-14_12h31.06.147,Flanker Compatibility Task,,2026.1.1,120.3295586,2026-04-14 12h31.06.440388 +0800
2,diamond,incong,-10,l,4,52,52,0,l,1,0.6199752,None,,,,,0,52,52,88,98.6250026,,,,,,,,98.6182452,99.1127113,99.7336485,,,,,,,,,,l,1,0.6199752,None,,,,,,p004,2026-04-14_12h31.06.147,Flanker Compatibility Task,,2026.1.1,120.3295586,2026-04-14 12h31.06.440388 +0800
1,diamond,cong,-10,l,5,53,53,0,l,1,0.4722738,None,,,,,0,53,53,29,99.7419344,,,,,,,,99.7348394,100.229809,100.7088411,,,,,,,,,,l,1,0.4722738,None,,,,,,p004,2026-04-14_12h31.06.147,Flanker Compatibility Task,,2026.1.1,120.3295586,2026-04-14 12h31.06.440388 +0800
4,square,incong,10,a,0,54,54,0,a,1,0.6967346,None,,,,,0,54,54,162,100.7171321,,,,,,,,100.7103098,101.2018888,101.9013178,,,,,,,,,,a,1,0.6967346,None,,,,,,p004,2026-04-14_12h31.06.147,Flanker Compatibility Task,,2026.1.1,120.3295586,2026-04-14 12h31.06.440388 +0800
2,diamond,cong,10,l,3,55,55,0,l,1,0.706567,None,,,,,0,55,55,81,101.9074911,,,,,,,,101.9026475,102.402085,103.1169694,,,,,,,,,,l,1,0.706567,None,,,,,,p004,2026-04-14_12h31.06.147,Flanker Compatibility Task,,2026.1.1,120.3295586,2026-04-14 12h31.06.440388 +0800
3,square,incong,-10,a,5,56,56,0,a,1,0.5510009,None,,,,,0,56,56,113,103.1241803,,,,,,,,103.1184295,103.610954,104.165727,,,,,,,,,,a,1,0.5510009,None,,,,,,p004,2026-04-14_12h31.06.147,Flanker Compatibility Task,,2026.1.1,120.3295586,2026-04-14 12h31.06.440388 +0800
1,square,cong,-10,a,1,57,57,0,a,1,0.5837736,None,,,,,0,57,57,1,104.1742279,,,,,,,,104.1669243,104.661259,105.2487854,,,,,,,,,,a,1,0.5837736,None,,,,,,p004,2026-04-14_12h31.06.147,Flanker Compatibility Task,,2026.1.1,120.3295586,2026-04-14 12h31.06.440388 +0800
2,diamond,incong,-10,l,2,58,58,0,l,1,0.7407274,None,,,,,0,58,58,86,105.2577105,,,,,,,,105.2497127,105.7442989,106.490528,,,,,,,,,,l,1,0.7407274,None,,,,,,p004,2026-04-14_12h31.06.147,Flanker Compatibility Task,,2026.1.1,120.3295586,2026-04-14 12h31.06.440388 +0800
1,square,cong,10,a,5,59,59,0,a,1,0.7210763,None,,,,,0,59,59,11,106.4991928,,,,,,,,106.4916958,106.9828886,107.7064955,,,,,,,,,,a,1,0.7210763,None,,,,,,p004,2026-04-14_12h31.06.147,Flanker Compatibility Task,,2026.1.1,120.3295586,2026-04-14 12h31.06.440388 +0800
4,diamond,incong,10,l,3,60,60,0,l,1,1.2908779,None,,,,,0,60,60,189,107.7143507,,,,,,,,107.7075596,108.2024348,109.497997,,,,,,,,,,l,1,1.2908779,None,,,,,,p004,2026-04-14_12h31.06.147,Flanker Compatibility Task,,2026.1.1,120.3295586,2026-04-14 12h31.06.440388 +0800
2,diamond,cong,-10,l,2,61,61,0,l,1,0.7861174,None,,,,,0,61,61,74,109.5066745,,,,,,,,109.4992602,109.9929335,110.781947,,,,,,,,,,l,1,0.7861174,None,,,,,,p004,2026-04-14_12h31.06.147,Flanker Compatibility Task,,2026.1.1,120.3295586,2026-04-14 12h31.06.440388 +0800
4,square,cong,10,a,0,62,62,0,a,1,0.5768142,None,,,,,0,62,62,150,110.7885165,,,,,,,,110.7834755,111.2813708,111.8639213,,,,,,,,,,a,1,0.5768142,None,,,,,,p004,2026-04-14_12h31.06.147,Flanker Compatibility Task,,2026.1.1,120.3295586,2026-04-14 12h31.06.440388 +0800
1,square,incong,-10,a,5,63,63,0,a,1,0.8239448,None,,,,,0,63,63,17,111.8713862,,,,,,,,111.8651115,112.3591404,113.1886368,,,,,,,,,,a,1,0.8239448,None,,,,,,p004,2026-04-14_12h31.06.147,Flanker Compatibility Task,,2026.1.1,120.3295586,2026-04-14 12h31.06.440388 +0800
4,diamond,incong,-10,l,4,64,64,0,l,1,1.3051066,None,,,,,0,64,64,184,113.1968798,,,,,,,,113.1896962,113.6824361,114.9892013,,,,,,,,,,l,1,1.3051066,None,,,,,,p004,2026-04-14_12h31.06.147,Flanker Compatibility Task,,2026.1.1,120.3295586,2026-04-14 12h31.06.440388 +0800
3,square,cong,10,a,2,65,65,0,a,1,0.9149321,None,,,,,0,65,65,104,114.9958155,,,,,,,,114.9906411,115.4907689,116.4132177,,,,,,,,,,a,1,0.9149321,None,,,,,,p004,2026-04-14_12h31.06.147,Flanker Compatibility Task,,2026.1.1,120.3295586,2026-04-14 12h31.06.440388 +0800
4,square,incong,10,a,2,66,66,0,a,1,1.1139189,None,,,,,0,66,66,164,116.4208324,,,,,,,,116.4147725,116.9086872,118.0293774,,,,,,,,,,a,1,1.1139189,None,,,,,,p004,2026-04-14_12h31.06.147,Flanker Compatibility Task,,2026.1.1,120.3295586,2026-04-14 12h31.06.440388 +0800
4,square,incong,10,a,3,67,67,0,a,1,1.8954563,None,,,,,0,67,67,165,118.0377378,,,,,,,,118.0308296,118.5248019,120.4212638,,,,,,,,,,a,1,1.8954563,None,,,,,,p004,2026-04-14_12h31.06.147,Flanker Compatibility Task,,2026.1.1,120.3295586,2026-04-14 12h31.06.440388 +0800
1,square,incong,-10,a,2,68,68,0,a,1,0.6982494,None,,,,,0,68,68,14,120.4277891,,,,,,,,120.4225242,120.9237202,121.6282192,,,,,,,,,,a,1,0.6982494,None,,,,,,p004,2026-04-14_12h31.06.147,Flanker Compatibility Task,,2026.1.1,120.3295586,2026-04-14 12h31.06.440388 +0800
3,square,incong,10,a,5,69,69,0,a,1,0.564012,None,,,,,0,69,69,119,121.6364002,,,,,,,,121.6295508,122.1243181,122.6945309,,,,,,,,,,a,1,0.564012,None,,,,,,p004,2026-04-14_12h31.06.147,Flanker Compatibility Task,,2026.1.1,120.3295586,2026-04-14 12h31.06.440388 +0800
4,diamond,cong,10,l,2,70,70,0,l,1,1.1277936,None,,,,,0,70,70,176,122.702571,,,,,,,,122.6959586,123.190514,124.3204957,,,,,,,,,,l,1,1.1277936,None,,,,,,p004,2026-04-14_12h31.06.147,Flanker Compatibility Task,,2026.1.1,120.3295586,2026-04-14 12h31.06.440388 +0800
4,diamond,cong,10,l,3,71,71,0,l,1,1.2772648,None,,,,,0,71,71,177,124.3268686,,,,,,,,124.3220881,124.8232122,126.102847,,,,,,,,,,l,1,1.2772648,None,,,,,,p004,2026-04-14_12h31.06.147,Flanker Compatibility Task,,2026.1.1,120.3295586,2026-04-14 12h31.06.440388 +0800
3,diamond,cong,-10,l,5,72,72,0,l,1,0.675416,None,,,,,0,72,72,125,126.1097856,,,,,,,,126.1042874,126.5982443,127.2778602,,,,,,,,,,l,1,0.675416,None,,,,,,p004,2026-04-14_12h31.06.147,Flanker Compatibility Task,,2026.1.1,120.3295586,2026-04-14 12h31.06.440388 +0800
4,diamond,cong,10,l,4,73,73,0,l,1,0.7501647,None,,,,,0,73,73,178,127.2846949,,,,,,,,127.2794174,127.7809103,128.534893,,,,,,,,,,l,1,0.7501647,None,,,,,,p004,2026-04-14_12h31.06.147,Flanker Compatibility Task,,2026.1.1,120.3295586,2026-04-14 12h31.06.440388 +0800
2,diamond,incong,10,l,3,74,74,0,l,1,0.7159341,None,,,,,0,74,74,93,128.5424429,,,,,,,,128.5361148,129.0291151,129.7518581,,,,,,,,,,l,1,0.7159341,None,,,,,,p004,2026-04-14_12h31.06.147,Flanker Compatibility Task,,2026.1.1,120.3295586,2026-04-14 12h31.06.440388 +0800
3,square,incong,10,a,0,75,75,0,a,1,0.5773423,None,,,,,0,75,75,114,129.7592979,,,,,,,,129.7532289,130.2551375,130.8348696,,,,,,,,,,a,1,0.5773423,None,,,,,,p004,2026-04-14_12h31.06.147,Flanker Compatibility Task,,2026.1.1,120.3295586,2026-04-14 12h31.06.440388 +0800
1,square,cong,10,a,4,76,76,0,a,1,0.4923413,None,,,,,0,76,76,10,130.8424282,,,,,,,,130.835901,131.3359214,131.8346182,,,,,,,,,,a,1,0.4923413,None,,,,,,p004,2026-04-14_12h31.06.147,Flanker Compatibility Task,,2026.1.1,120.3295586,2026-04-14 12h31.06.440388 +0800
2,square,cong,-10,a,4,77,77,0,a,1,0.4887071,None,,,,,0,77,77,52,131.8427699,,,,,,,,131.8357335,132.3288335,132.8186035,,,,,,,,,,a,1,0.4887071,None,,,,,,p004,2026-04-14_12h31.06.147,Flanker Compatibility Task,,2026.1.1,120.3295586,2026-04-14 12h31.06.440388 +0800
1,diamond,cong,-10,l,3,78,78,0,l,1,0.5562231,None,,,,,0,78,78,27,132.8251665,,,,,,,,132.8196383,133.3190028,133.8764305,,,,,,,,,,l,1,0.5562231,None,,,,,,p004,2026-04-14_12h31.06.147,Flanker Compatibility Task,,2026.1.1,120.3295586,2026-04-14 12h31.06.440388 +0800
4,diamond,cong,-10,l,3,79,79,0,l,1,0.8300256,None,,,,,0,79,79,171,133.8836713,,,,,,,,133.8780848,134.3793746,135.2168278,,,,,,,,,,l,1,0.8300256,None,,,,,,p004,2026-04-14_12h31.06.147,Flanker Compatibility Task,,2026.1.1,120.3295586,2026-04-14 12h31.06.440388 +0800
4,square,cong,10,a,3,80,80,0,a,1,0.9216354,None,,,,,0,80,80,153,135.2248392,,,,,,,,135.2183036,135.712363,136.6415445,,,,,,,,,,a,1,0.9216354,None,,,,,,p004,2026-04-14_12h31.06.147,Flanker Compatibility Task,,2026.1.1,120.3295586,2026-04-14 12h31.06.440388 +0800
1,square,cong,-10,a,4,81,81,0,a,1,0.5121313,None,,,,,0,81,81,4,136.6494617,,,,,,,,136.6430444,137.1345588,137.6500027,,,,,,,,,,a,1,0.5121313,None,,,,,,p004,2026-04-14_12h31.06.147,Flanker Compatibility Task,,2026.1.1,120.3295586,2026-04-14 12h31.06.440388 +0800
1,diamond,cong,10,l,4,82,82,0,l,1,0.6290888,None,,,,,0,82,82,34,137.657004,,,,,,,,137.651438,138.1444467,138.7748207,,,,,,,,,,l,1,0.6290888,None,,,,,,p004,2026-04-14_12h31.06.147,Flanker Compatibility Task,,2026.1.1,120.3295586,2026-04-14 12h31.06.440388 +0800
4,diamond,incong,10,l,0,83,83,0,l,1,2.3815165,None,,,,,0,83,83,186,138.7814809,,,,,,,,138.7763473,139.2694687,141.6598481,,,,,,,,,,l,1,2.3815165,None,,,,,,p004,2026-04-14_12h31.06.147,Flanker Compatibility Task,,2026.1.1,120.3295586,2026-04-14 12h31.06.440388 +0800
4,diamond,incong,-10,l,3,84,84,0,l,1,1.1321506,None,,,,,0,84,84,183,141.6659148,,,,,,,,141.661473,142.1602793,143.2983221,,,,,,,,,,l,1,1.1321506,None,,,,,,p004,2026-04-14_12h31.06.147,Flanker Compatibility Task,,2026.1.1,120.3295586,2026-04-14 12h31.06.440388 +0800
4,square,cong,10,a,5,85,85,0,a,1,0.8378472,None,,,,,0,85,85,155,143.3062978,,,,,,,,143.2997674,143.7941127,144.6400809,,,,,,,,,,a,1,0.8378472,None,,,,,,p004,2026-04-14_12h31.06.147,Flanker Compatibility Task,,2026.1.1,120.3295586,2026-04-14 12h31.06.440388 +0800
1,square,incong,10,a,2,86,86,0,a,1,0.6011511,None,,,,,0,86,86,20,144.6474118,,,,,,,,144.6416421,145.1425447,145.7486517,,,,,,,,,,a,1,0.6011511,None,,,,,,p004,2026-04-14_12h31.06.147,Flanker Compatibility Task,,2026.1.1,120.3295586,2026-04-14 12h31.06.440388 +0800
2,square,cong,-10,a,2,87,87,0,a,1,0.5471632,None,,,,,0,87,87,50,145.7553749,,,,,,,,145.7500116,146.250275,146.8053727,,,,,,,,,,a,1,0.5471632,None,,,,,,p004,2026-04-14_12h31.06.147,Flanker Compatibility Task,,2026.1.1,120.3295586,2026-04-14 12h31.06.440388 +0800
4,diamond,incong,-10,l,0,88,88,0,l,1,0.7963354,None,,,,,0,88,88,180,146.8132849,,,,,,,,146.8068378,147.3012182,148.0984115,,,,,,,,,,l,1,0.7963354,None,,,,,,p004,2026-04-14_12h31.06.147,Flanker Compatibility Task,,2026.1.1,120.3295586,2026-04-14 12h31.06.440388 +0800
1,diamond,incong,-10,l,3,89,89,0,l,1,0.841163,None,,,,,0,89,89,39,148.1047521,,,,,,,,148.099479,148.6000917,149.4471946,,,,,,,,,,l,1,0.841163,None,,,,,,p004,2026-04-14_12h31.06.147,Flanker Compatibility Task,,2026.1.1,120.3295586,2026-04-14 12h31.06.440388 +0800
3,square,cong,10,a,3,90,90,0,a,1,0.7003989,None,,,,,0,90,90,105,149.4540833,,,,,,,,149.4489459,149.9421607,150.6476005,,,,,,,,,,a,1,0.7003989,None,,,,,,p004,2026-04-14_12h31.06.147,Flanker Compatibility Task,,2026.1.1,120.3295586,2026-04-14 12h31.06.440388 +0800
1,square,incong,10,a,0,91,91,0,a,1,0.976064,None,,,,,0,91,91,18,150.6536986,,,,,,,,150.6488702,151.1491718,152.1288291,,,,,,,,,,a,1,0.976064,None,,,,,,p004,2026-04-14_12h31.06.147,Flanker Compatibility Task,,2026.1.1,120.3295586,2026-04-14 12h31.06.440388 +0800
3,diamond,incong,-10,l,0,92,92,0,l,1,0.6728062,None,,,,,0,92,92,132,152.1366695,,,,,,,,152.1301689,152.6243104,153.3047953,,,,,,,,,,l,1,0.6728062,None,,,,,,p004,2026-04-14_12h31.06.147,Flanker Compatibility Task,,2026.1.1,120.3295586,2026-04-14 12h31.06.440388 +0800
1,diamond,incong,10,l,1,93,93,0,l,1,1.1795292,None,,,,,0,93,93,43,153.3127036,,,,,,,,153.3059832,153.7984904,154.9798471,,,,,,,,,,l,1,1.1795292,None,,,,,,p004,2026-04-14_12h31.06.147,Flanker Compatibility Task,,2026.1.1,120.3295586,2026-04-14 12h31.06.440388 +0800
1,square,cong,-10,a,5,94,94,0,a,1,0.6466658,None,,,,,0,94,94,5,154.9866895,,,,,,,,154.9811581,155.4780152,156.1296875,,,,,,,,,,a,1,0.6466658,None,,,,,,p004,2026-04-14_12h31.06.147,Flanker Compatibility Task,,2026.1.1,120.3295586,2026-04-14 12h31.06.440388 +0800
2,square,cong,-10,a,3,95,95,0,a,1,0.7258629,None,,,,,0,95,95,51,156.1363363,,,,,,,,156.1310181,156.6295912,157.3626896,,,,,,,,,,a,1,0.7258629,None,,,,,,p004,2026-04-14_12h31.06.147,Flanker Compatibility Task,,2026.1.1,120.3295586,2026-04-14 12h31.06.440388 +0800
3,diamond,cong,-10,l,3,96,96,0,l,1,0.7158559,None,,,,,0,96,96,123,157.3699817,,,,,,,,157.3641401,157.8653885,158.5865937,,,,,,,,,,l,1,0.7158559,None,,,,,,p004,2026-04-14_12h31.06.147,Flanker Compatibility Task,,2026.1.1,120.3295586,2026-04-14 12h31.06.440388 +0800
1,square,incong,10,a,5,97,97,0,a,1,0.4991197,None,,,,,0,97,97,23,158.5942846,,,,,,,,158.5875074,159.0811452,159.5853274,,,,,,,,,,a,1,0.4991197,None,,,,,,p004,2026-04-14_12h31.06.147,Flanker Compatibility Task,,2026.1.1,120.3295586,2026-04-14 12h31.06.440388 +0800
2,square,cong,-10,a,5,98,98,0,a,1,0.4489786,None,,,,,0,98,98,53,159.593516,,,,,,,,159.5862289,160.0804225,160.5361861,,,,,,,,,,a,1,0.4489786,None,,,,,,p004,2026-04-14_12h31.06.147,Flanker Compatibility Task,,2026.1.1,120.3295586,2026-04-14 12h31.06.440388 +0800
1,square,cong,10,a,2,99,99,0,a,1,0.9644495,None,,,,,0,99,99,8,160.5440609,,,,,,,,160.5373443,161.0386653,162.0102729,,,,,,,,,,a,1,0.9644495,None,,,,,,p004,2026-04-14_12h31.06.147,Flanker Compatibility Task,,2026.1.1,120.3295586,2026-04-14 12h31.06.440388 +0800
3,square,incong,-10,a,3,100,100,0,a,1,0.6828158,None,,,,,0,100,100,111,162.0184673,,,,,,,,162.0123883,162.5060628,163.1929261,,,,,,,,,,a,1,0.6828158,None,,,,,,p004,2026-04-14_12h31.06.147,Flanker Compatibility Task,,2026.1.1,120.3295586,2026-04-14 12h31.06.440388 +0800
2,square,cong,10,a,3,101,101,0,a,1,0.6826294,None,,,,,0,101,101,57,163.2010687,,,,,,,,163.1941598,163.687367,164.3761042,,,,,,,,,,a,1,0.6826294,None,,,,,,p004,2026-04-14_12h31.06.147,Flanker Compatibility Task,,2026.1.1,120.3295586,2026-04-14 12h31.06.440388 +0800
3,square,cong,10,a,0,102,102,0,a,1,0.6744586,None,,,,,0,102,102,102,164.3846223,,,,,,,,164.3775148,164.8688791,165.5505305,,,,,,,,,,a,1,0.6744586,None,,,,,,p004,2026-04-14_12h31.06.147,Flanker Compatibility Task,,2026.1.1,120.3295586,2026-04-14 12h31.06.440388 +0800
4,square,incong,-10,a,4,103,103,0,a,1,2.5249804,None,,,,,0,103,103,160,165.5584056,,,,,,,,165.5517251,166.0468921,168.5757629,,,,,,,,,,a,1,2.5249804,None,,,,,,p004,2026-04-14_12h31.06.147,Flanker Compatibility Task,,2026.1.1,120.3295586,2026-04-14 12h31.06.440388 +0800
3,diamond,cong,10,l,2,104,104,0,l,1,0.8809412,None,,,,,0,104,104,128,168.5834062,,,,,,,,168.5771015,169.0706878,169.9593358,,,,,,,,,,l,1,0.8809412,None,,,,,,p004,2026-04-14_12h31.06.147,Flanker Compatibility Task,,2026.1.1,120.3295586,2026-04-14 12h31.06.440388 +0800
2,square,incong,-10,a,1,105,105,0,a,1,0.6916798,None,,,,,0,105,105,61,169.9665231,,,,,,,,169.9606994,170.461433,171.1588257,,,,,,,,,,a,1,0.6916798,None,,,,,,p004,2026-04-14_12h31.06.147,Flanker Compatibility Task,,2026.1.1,120.3295586,2026-04-14 12h31.06.440388 +0800
2,diamond,cong,-10,l,1,106,106,0,l,1,0.7803367,None,,,,,0,106,106,73,171.1662068,,,,,,,,171.1601833,171.6578611,172.442259,,,,,,,,,,l,1,0.7803367,None,,,,,,p004,2026-04-14_12h31.06.147,Flanker Compatibility Task,,2026.1.1,120.3295586,2026-04-14 12h31.06.440388 +0800
1,diamond,incong,10,l,5,107,107,0,l,1,0.8643835,None,,,,,0,107,107,47,172.4490641,,,,,,,,172.4435098,172.9456542,173.8163429,,,,,,,,,,l,1,0.8643835,None,,,,,,p004,2026-04-14_12h31.06.147,Flanker Compatibility Task,,2026.1.1,120.3295586,2026-04-14 12h31.06.440388 +0800
2,square,cong,10,a,1,108,108,0,a,1,0.608832,None,,,,,0,108,108,55,173.8240571,,,,,,,,173.8176225,174.3144705,174.9315526,,,,,,,,,,a,1,0.608832,None,,,,,,p004,2026-04-14_12h31.06.147,Flanker Compatibility Task,,2026.1.1,120.3295586,2026-04-14 12h31.06.440388 +0800
1,square,incong,-10,a,4,109,109,0,a,1,0.5428183,None,,,,,0,109,109,16,174.9405187,,,,,,,,174.9328476,175.4233134,175.9668157,,,,,,,,,,a,1,0.5428183,None,,,,,,p004,2026-04-14_12h31.06.147,Flanker Compatibility Task,,2026.1.1,120.3295586,2026-04-14 12h31.06.440388 +0800
1,diamond,incong,-10,l,5,110,110,0,l,1,0.6075961,None,,,,,0,110,110,41,175.9731897,,,,,,,,175.968089,176.467423,177.0816562,,,,,,,,,,l,1,0.6075961,None,,,,,,p004,2026-04-14_12h31.06.147,Flanker Compatibility Task,,2026.1.1,120.3295586,2026-04-14 12h31.06.440388 +0800
4,diamond,incong,10,l,4,111,111,0,l,1,1.2934682,None,,,,,0,111,111,190,177.0899699,,,,,,,,177.0831396,177.5741345,178.8737551,,,,,,,,,,l,1,1.2934682,None,,,,,,p004,2026-04-14_12h31.06.147,Flanker Compatibility Task,,2026.1.1,120.3295586,2026-04-14 12h31.06.440388 +0800
4,diamond,cong,10,l,5,112,112,0,l,1,0.4902177,None,,,,,0,112,112,179,178.8806435,,,,,,,,178.8753035,179.3762496,179.8728596,,,,,,,,,,l,1,0.4902177,None,,,,,,p004,2026-04-14_12h31.06.147,Flanker Compatibility Task,,2026.1.1,120.3295586,2026-04-14 12h31.06.440388 +0800
4,diamond,incong,-10,l,1,113,113,0,l,1,1.2427061,None,,,,,0,113,113,181,179.8804639,,,,,,,,179.8742718,180.3679967,181.6138011,,,,,,,,,,l,1,1.2427061,None,,,,,,p004,2026-04-14_12h31.06.147,Flanker Compatibility Task,,2026.1.1,120.3295586,2026-04-14 12h31.06.440388 +0800
2,square,incong,10,a,3,114,114,0,a,1,0.9111456,None,,,,,0,114,114,69,181.6208885,,,,,,,,181.6149838,182.1085842,183.0216183,,,,,,,,,,a,1,0.9111456,None,,,,,,p004,2026-04-14_12h31.06.147,Flanker Compatibility Task,,2026.1.1,120.3295586,2026-04-14 12h31.06.440388 +0800
1,diamond,incong,-10,l,2,115,115,0,l,1,0.9238366,None,,,,,0,115,115,38,183.0289203,,,,,,,,183.0227352,183.5158484,184.4407135,,,,,,,,,,l,1,0.9238366,None,,,,,,p004,2026-04-14_12h31.06.147,Flanker Compatibility Task,,2026.1.1,120.3295586,2026-04-14 12h31.06.440388 +0800
3,diamond,cong,-10,l,0,116,116,0,l,1,1.0300001,None,,,,,0,116,116,120,184.4459185,,,,,,,,184.4427936,184.9419301,185.9800731,,,,,,,,,,l,1,1.0300001,None,,,,,,p004,2026-04-14_12h31.06.147,Flanker Compatibility Task,,2026.1.1,120.3295586,2026-04-14 12h31.06.440388 +0800
3,diamond,incong,-10,l,3,117,117,0,l,1,0.8700677,None,,,,,0,117,117,135,185.9870511,,,,,,,,185.9818144,186.4748231,187.346009,,,,,,,,,,l,1,0.8700677,None,,,,,,p004,2026-04-14_12h31.06.147,Flanker Compatibility Task,,2026.1.1,120.3295586,2026-04-14 12h31.06.440388 +0800
4,diamond,cong,-10,l,4,118,118,0,l,1,0.8490855,None,,,,,0,118,118,172,187.3529063,,,,,,,,187.3475429,187.8405728,188.6950826,,,,,,,,,,l,1,0.8490855,None,,,,,,p004,2026-04-14_12h31.06.147,Flanker Compatibility Task,,2026.1.1,120.3295586,2026-04-14 12h31.06.440388 +0800
3,square,cong,-10,a,5,119,119,0,a,1,0.6940287,None,,,,,0,119,119,101,188.7033699,,,,,,,,188.6964572,189.1903114,189.8877137,,,,,,,,,,a,1,0.6940287,None,,,,,,p004,2026-04-14_12h31.06.147,Flanker Compatibility Task,,2026.1.1,120.3295586,2026-04-14 12h31.06.440388 +0800
2,square,incong,10,a,5,120,120,0,a,1,0.4768117,None,,,,,0,120,120,71,189.8939806,,,,,,,,189.8890652,190.3905849,190.8692931,,,,,,,,,,a,1,0.4768117,None,,,,,,p004,2026-04-14_12h31.06.147,Flanker Compatibility Task,,2026.1.1,120.3295586,2026-04-14 12h31.06.440388 +0800
1,diamond,cong,10,l,1,121,121,0,l,1,0.5559151,None,,,,,0,121,121,31,190.8769504,,,,,,,,190.8705457,191.3645626,191.9211731,,,,,,,,,,l,1,0.5559151,None,,,,,,p004,2026-04-14_12h31.06.147,Flanker Compatibility Task,,2026.1.1,120.3295586,2026-04-14 12h31.06.440388 +0800
4,square,cong,-10,a,3,122,122,0,a,1,0.6584557,None,,,,,0,122,122,147,191.927552,,,,,,,,191.9227352,192.4230361,193.0857006,,,,,,,,,,a,1,0.6584557,None,,,,,,p004,2026-04-14_12h31.06.147,Flanker Compatibility Task,,2026.1.1,120.3295586,2026-04-14 12h31.06.440388 +0800
2,diamond,cong,10,l,4,123,123,0,l,1,0.622862,None,,,,,0,123,123,82,193.0934832,,,,,,,,193.0869807,193.5809883,194.2100587,,,,,,,,,,l,1,0.622862,None,,,,,,p004,2026-04-14_12h31.06.147,Flanker Compatibility Task,,2026.1.1,120.3295586,2026-04-14 12h31.06.440388 +0800
4,square,cong,-10,a,1,124,124,0,a,1,0.8946503,None,,,,,0,124,124,145,194.2187781,,,,,,,,194.2115124,194.7060873,195.6025498,,,,,,,,,,a,1,0.8946503,None,,,,,,p004,2026-04-14_12h31.06.147,Flanker Compatibility Task,,2026.1.1,120.3295586,2026-04-14 12h31.06.440388 +0800
3,square,incong,10,a,3,125,125,0,a,1,0.8885343,None,,,,,0,125,125,117,195.6091159,,,,,,,,195.6039765,196.0985565,196.9937295,,,,,,,,,,a,1,0.8885343,None,,,,,,p004,2026-04-14_12h31.06.147,Flanker Compatibility Task,,2026.1.1,120.3295586,2026-04-14 12h31.06.440388 +0800
1,square,cong,10,a,0,126,126,0,a,1,0.4617099,None,,,,,0,126,126,6,197.000864,,,,,,,,196.9953621,197.4880816,197.9516797,,,,,,,,,,a,1,0.4617099,None,,,,,,p004,2026-04-14_12h31.06.147,Flanker Compatibility Task,,2026.1.1,120.3295586,2026-04-14 12h31.06.440388 +0800
2,square,incong,-10,a,3,127,127,0,a,1,0.6164862,None,,,,,0,127,127,63,197.9587606,,,,,,,,197.9531867,198.4468081,199.0684972,,,,,,,,,,a,1,0.6164862,None,,,,,,p004,2026-04-14_12h31.06.147,Flanker Compatibility Task,,2026.1.1,120.3295586,2026-04-14 12h31.06.440388 +0800
3,square,incong,10,a,4,128,128,0,a,1,0.9827269,None,,,,,0,128,128,118,199.0751576,,,,,,,,199.0695532,199.5637114,200.5517354,,,,,,,,,,a,1,0.9827269,None,,,,,,p004,2026-04-14_12h31.06.147,Flanker Compatibility Task,,2026.1.1,120.3295586,2026-04-14 12h31.06.440388 +0800
4,square,incong,10,a,1,129,129,0,a,1,0.5457468,None,,,,,0,129,129,163,200.5579996,,,,,,,,200.5532849,201.0537245,201.6011157,,,,,,,,,,a,1,0.5457468,None,,,,,,p004,2026-04-14_12h31.06.147,Flanker Compatibility Task,,2026.1.1,120.3295586,2026-04-14 12h31.06.440388 +0800
1,diamond,cong,-10,l,1,130,130,0,l,1,0.5031786,None,,,,,0,130,130,25,201.6076966,,,,,,,,201.6023616,202.1040142,202.6095662,,,,,,,,,,l,1,0.5031786,None,,,,,,p004,2026-04-14_12h31.06.147,Flanker Compatibility Task,,2026.1.1,120.3295586,2026-04-14 12h31.06.440388 +0800
2,diamond,incong,-10,l,0,131,131,0,l,1,0.6475147,None,,,,,0,131,131,84,202.6159302,,,,,,,,202.6109102,203.1117094,203.7658276,,,,,,,,,,l,1,0.6475147,None,,,,,,p004,2026-04-14_12h31.06.147,Flanker Compatibility Task,,2026.1.1,120.3295586,2026-04-14 12h31.06.440388 +0800
4,diamond,cong,10,l,0,132,132,0,l,1,0.9141167,None,,,,,0,132,132,174,203.7737968,,,,,,,,203.7668963,204.2621461,205.1829257,,,,,,,,,,l,1,0.9141167,None,,,,,,p004,2026-04-14_12h31.06.147,Flanker Compatibility Task,,2026.1.1,120.3295586,2026-04-14 12h31.06.440388 +0800
4,square,cong,-10,a,2,133,133,0,a,1,0.7786972,None,,,,,0,133,133,146,205.1911834,,,,,,,,205.1844972,205.6848742,206.4657696,,,,,,,,,,a,1,0.7786972,None,,,,,,p004,2026-04-14_12h31.06.147,Flanker Compatibility Task,,2026.1.1,120.3295586,2026-04-14 12h31.06.440388 +0800
1,square,cong,-10,a,3,134,134,0,a,1,0.5949003,None,,,,,0,134,134,3,206.473036,,,,,,,,206.4669194,206.9620332,207.5649747,,,,,,,,,,a,1,0.5949003,None,,,,,,p004,2026-04-14_12h31.06.147,Flanker Compatibility Task,,2026.1.1,120.3295586,2026-04-14 12h31.06.440388 +0800
4,diamond,cong,-10,l,2,135,135,0,l,1,0.9535866,None,,,,,0,135,135,170,207.573938,,,,,,,,207.5664516,208.0611314,209.0233033,,,,,,,,,,l,1,0.9535866,None,,,,,,p004,2026-04-14_12h31.06.147,Flanker Compatibility Task,,2026.1.1,120.3295586,2026-04-14 12h31.06.440388 +0800
4,diamond,incong,10,l,5,136,136,0,l,1,0.7664895,None,,,,,0,136,136,191,209.0319079,,,,,,,,209.0247417,209.5185683,210.2896423,,,,,,,,,,l,1,0.7664895,None,,,,,,p004,2026-04-14_12h31.06.147,Flanker Compatibility Task,,2026.1.1,120.3295586,2026-04-14 12h31.06.440388 +0800
3,diamond,cong,-10,l,4,137,137,0,l,1,0.9333781,None,,,,,0,137,137,124,210.2978774,,,,,,,,210.2909854,210.7850793,211.7226073,,,,,,,,,,l,1,0.9333781,None,,,,,,p004,2026-04-14_12h31.06.147,Flanker Compatibility Task,,2026.1.1,120.3295586,2026-04-14 12h31.06.440388 +0800
1,square,cong,-10,a,0,138,138,0,a,1,0.5495458,None,,,,,0,138,138,0,211.7302847,,,,,,,,211.7237806,212.217031,212.7721183,,,,,,,,,,a,1,0.5495458,None,,,,,,p004,2026-04-14_12h31.06.147,Flanker Compatibility Task,,2026.1.1,120.3295586,2026-04-14 12h31.06.440388 +0800
1,diamond,incong,10,l,2,139,139,0,l,1,0.6267822,None,,,,,0,139,139,44,212.7812008,,,,,,,,212.7735799,213.2669982,213.8974819,,,,,,,,,,l,1,0.6267822,None,,,,,,p004,2026-04-14_12h31.06.147,Flanker Compatibility Task,,2026.1.1,120.3295586,2026-04-14 12h31.06.440388 +0800
3,square,cong,10,a,4,140,140,0,a,1,0.8240234,None,,,,,0,140,140,106,213.9045693,,,,,,,,213.8988952,214.3924687,215.2218944,,,,,,,,,,a,1,0.8240234,None,,,,,,p004,2026-04-14_12h31.06.147,Flanker Compatibility Task,,2026.1.1,120.3295586,2026-04-14 12h31.06.440388 +0800
2,square,cong,10,a,4,141,141,0,a,1,0.3834614,None,,,,,0,141,141,58,215.2300314,,,,,,,,215.2231405,215.7251093,216.1143735,,,,,,,,,,a,1,0.3834614,None,,,,,,p004,2026-04-14_12h31.06.147,Flanker Compatibility Task,,2026.1.1,120.3295586,2026-04-14 12h31.06.440388 +0800
1,diamond,cong,10,l,2,142,142,0,l,1,0.6889223,None,,,,,0,142,142,32,216.1207779,,,,,,,,216.1155191,216.6162772,217.30594,,,,,,,,,,l,1,0.6889223,None,,,,,,p004,2026-04-14_12h31.06.147,Flanker Compatibility Task,,2026.1.1,120.3295586,2026-04-14 12h31.06.440388 +0800
4,square,incong,10,a,5,143,143,0,a,1,0.6021943,None,,,,,0,143,143,167,217.3120763,,,,,,,,217.3074928,217.8049333,218.4126783,,,,,,,,,,a,1,0.6021943,None,,,,,,p004,2026-04-14_12h31.06.147,Flanker Compatibility Task,,2026.1.1,120.3295586,2026-04-14 12h31.06.440388 +0800
4,square,cong,-10,a,0,144,144,0,a,1,1.9296212,None,,,,,0,144,144,144,218.4203957,,,,,,,,218.4141066,218.9094731,220.8458656,,,,,,,,,,a,1,1.9296212,None,,,,,,p004,2026-04-14_12h31.06.147,Flanker Compatibility Task,,2026.1.1,120.3295586,2026-04-14 12h31.06.440388 +0800
3,square,cong,10,a,5,145,145,0,a,1,0.5228582,None,,,,,0,145,145,107,220.8540946,,,,,,,,220.8471901,221.3493458,221.8784879,,,,,,,,,,a,1,0.5228582,None,,,,,,p004,2026-04-14_12h31.06.147,Flanker Compatibility Task,,2026.1.1,120.3295586,2026-04-14 12h31.06.440388 +0800
4,square,cong,10,a,1,146,146,0,a,1,0.5533349,None,,,,,0,146,146,151,221.8867502,,,,,,,,221.8795333,222.3750784,222.9294253,,,,,,,,,,a,1,0.5533349,None,,,,,,p004,2026-04-14_12h31.06.147,Flanker Compatibility Task,,2026.1.1,120.3295586,2026-04-14 12h31.06.440388 +0800
4,square,cong,-10,a,5,147,147,0,a,1,0.4102936,None,,,,,0,147,147,149,222.9369008,,,,,,,,222.9310128,223.4243415,223.8362527,,,,,,,,,,a,1,0.4102936,None,,,,,,p004,2026-04-14_12h31.06.147,Flanker Compatibility Task,,2026.1.1,120.3295586,2026-04-14 12h31.06.440388 +0800
3,diamond,incong,-10,l,1,148,148,0,l,1,0.7252208,None,,,,,0,148,148,133,223.8437988,,,,,,,,223.8372734,224.338348,225.0696628,,,,,,,,,,l,1,0.7252208,None,,,,,,p004,2026-04-14_12h31.06.147,Flanker Compatibility Task,,2026.1.1,120.3295586,2026-04-14 12h31.06.440388 +0800
2,diamond,incong,10,l,1,149,149,0,l,1,0.7863098,None,,,,,0,149,149,91,225.0778138,,,,,,,,225.0709591,225.5645267,226.3522318,,,,,,,,,,l,1,0.7863098,None,,,,,,p004,2026-04-14_12h31.06.147,Flanker Compatibility Task,,2026.1.1,120.3295586,2026-04-14 12h31.06.440388 +0800
4,diamond,incong,-10,l,5,150,150,0,l,1,0.7159116,None,,,,,0,150,150,185,226.3598754,,,,,,,,226.3537008,226.8466675,227.5686755,,,,,,,,,,l,1,0.7159116,None,,,,,,p004,2026-04-14_12h31.06.147,Flanker Compatibility Task,,2026.1.1,120.3295586,2026-04-14 12h31.06.440388 +0800
3,square,incong,-10,a,1,151,151,0,a,1,0.6428872,None,,,,,0,151,151,109,227.5762166,,,,,,,,227.5701741,228.0640337,228.7101886,,,,,,,,,,a,1,0.6428872,None,,,,,,p004,2026-04-14_12h31.06.147,Flanker Compatibility Task,,2026.1.1,120.3295586,2026-04-14 12h31.06.440388 +0800
4,square,incong,-10,a,0,152,152,0,a,1,0.6545868,None,,,,,0,152,152,156,228.7176448,,,,,,,,228.7120286,229.2060784,229.8681006,,,,,,,,,,a,1,0.6545868,None,,,,,,p004,2026-04-14_12h31.06.147,Flanker Compatibility Task,,2026.1.1,120.3295586,2026-04-14 12h31.06.440388 +0800
1,square,cong,10,a,3,153,153,0,a,1,0.636875,None,,,,,0,153,153,9,229.8758009,,,,,,,,229.8689906,230.3612131,231.0022653,,,,,,,,,,a,1,0.636875,None,,,,,,p004,2026-04-14_12h31.06.147,Flanker Compatibility Task,,2026.1.1,120.3295586,2026-04-14 12h31.06.440388 +0800
3,diamond,incong,10,l,2,154,154,0,l,1,1.2653291,None,,,,,0,154,154,140,231.0093906,,,,,,,,231.0037296,231.4972184,232.7675089,,,,,,,,,,l,1,1.2653291,None,,,,,,p004,2026-04-14_12h31.06.147,Flanker Compatibility Task,,2026.1.1,120.3295586,2026-04-14 12h31.06.440388 +0800
1,diamond,cong,10,l,0,155,155,0,l,1,0.8370694,None,,,,,0,155,155,30,232.7757846,,,,,,,,232.7690279,233.2633493,234.1018068,,,,,,,,,,l,1,0.8370694,None,,,,,,p004,2026-04-14_12h31.06.147,Flanker Compatibility Task,,2026.1.1,120.3295586,2026-04-14 12h31.06.440388 +0800
1,diamond,incong,-10,l,1,156,156,0,l,1,0.9542273,None,,,,,0,156,156,37,234.1080784,,,,,,,,234.1030883,234.6023919,235.5597221,,,,,,,,,,l,1,0.9542273,None,,,,,,p004,2026-04-14_12h31.06.147,Flanker Compatibility Task,,2026.1.1,120.3295586,2026-04-14 12h31.06.440388 +0800
3,diamond,cong,-10,l,1,157,157,0,l,1,0.7568142,None,,,,,0,157,157,121,235.5660087,,,,,,,,235.561542,236.0620954,236.8252376,,,,,,,,,,l,1,0.7568142,None,,,,,,p004,2026-04-14_12h31.06.147,Flanker Compatibility Task,,2026.1.1,120.3295586,2026-04-14 12h31.06.440388 +0800
2,diamond,incong,10,l,5,158,158,0,l,1,0.8753402,None,,,,,0,158,158,95,236.8335308,,,,,,,,236.8265118,237.3258793,238.2077786,,,,,,,,,,l,1,0.8753402,None,,,,,,p004,2026-04-14_12h31.06.147,Flanker Compatibility Task,,2026.1.1,120.3295586,2026-04-14 12h31.06.440388 +0800
3,square,cong,-10,a,2,159,159,0,a,1,0.6205301,None,,,,,0,159,159,98,238.2165085,,,,,,,,238.2091216,238.7027366,239.3250168,,,,,,,,,,a,1,0.6205301,None,,,,,,p004,2026-04-14_12h31.06.147,Flanker Compatibility Task,,2026.1.1,120.3295586,2026-04-14 12h31.06.440388 +0800
4,square,cong,10,a,2,160,160,0,a,1,0.8177283,None,,,,,0,160,160,152,239.3324029,,,,,,,,239.3265551,239.8196708,240.6417021,,,,,,,,,,a,1,0.8177283,None,,,,,,p004,2026-04-14_12h31.06.147,Flanker Compatibility Task,,2026.1.1,120.3295586,2026-04-14 12h31.06.440388 +0800
3,square,cong,-10,a,3,161,161,0,l,0,0.936656,None,,,,,0,161,161,99,240.6481051,,,,,,,,240.6433881,241.14428,242.0824996,,,,,,,,,,l,0,0.936656,None,,,,,,p004,2026-04-14_12h31.06.147,Flanker Compatibility Task,,2026.1.1,120.3295586,2026-04-14 12h31.06.440388 +0800
1,diamond,cong,-10,l,2,162,162,0,l,1,0.8153118,None,,,,,0,162,162,26,242.0892912,,,,,,,,242.0838405,242.5759777,243.3982092,,,,,,,,,,l,1,0.8153118,None,,,,,,p004,2026-04-14_12h31.06.147,Flanker Compatibility Task,,2026.1.1,120.3295586,2026-04-14 12h31.06.440388 +0800
1,square,incong,-10,a,3,163,163,0,a,1,0.6120062,None,,,,,0,163,163,15,243.4067344,,,,,,,,243.3993738,243.9013138,244.5157912,,,,,,,,,,a,1,0.6120062,None,,,,,,p004,2026-04-14_12h31.06.147,Flanker Compatibility Task,,2026.1.1,120.3295586,2026-04-14 12h31.06.440388 +0800
3,diamond,incong,10,l,3,164,164,0,l,1,0.6775129,None,,,,,0,164,164,141,244.5219026,,,,,,,,244.5175138,245.0179638,245.6991873,,,,,,,,,,l,1,0.6775129,None,,,,,,p004,2026-04-14_12h31.06.147,Flanker Compatibility Task,,2026.1.1,120.3295586,2026-04-14 12h31.06.440388 +0800
2,square,incong,-10,a,4,165,165,0,a,1,0.5118553,None,,,,,0,165,165,64,245.7050542,,,,,,,,245.7004907,246.1965276,246.7146561,,,,,,,,,,a,1,0.5118553,None,,,,,,p004,2026-04-14_12h31.06.147,Flanker Compatibility Task,,2026.1.1,120.3295586,2026-04-14 12h31.06.440388 +0800
2,diamond,cong,10,l,1,166,166,0,l,1,0.6438786,None,,,,,0,166,166,79,246.7215154,,,,,,,,246.7160065,247.2086055,247.856304,,,,,,,,,,l,1,0.6438786,None,,,,,,p004,2026-04-14_12h31.06.147,Flanker Compatibility Task,,2026.1.1,120.3295586,2026-04-14 12h31.06.440388 +0800
1,diamond,incong,-10,l,4,167,167,0,l,1,0.7354582,None,,,,,0,167,167,40,247.863519,,,,,,,,247.8575763,248.3498693,249.0892408,,,,,,,,,,l,1,0.7354582,None,,,,,,p004,2026-04-14_12h31.06.147,Flanker Compatibility Task,,2026.1.1,120.3295586,2026-04-14 12h31.06.440388 +0800
2,square,incong,10,a,4,168,168,0,a,1,0.6554783,None,,,,,0,168,168,70,249.09588,,,,,,,,249.090577,249.5921725,250.2548976,,,,,,,,,,a,1,0.6554783,None,,,,,,p004,2026-04-14_12h31.06.147,Flanker Compatibility Task,,2026.1.1,120.3295586,2026-04-14 12h31.06.440388 +0800
2,square,cong,10,a,2,169,169,0,a,1,0.7841569,None,,,,,0,169,169,56,250.2630147,,,,,,,,250.2561284,250.7480993,251.5379623,,,,,,,,,,a,1,0.7841569,None,,,,,,p004,2026-04-14_12h31.06.147,Flanker Compatibility Task,,2026.1.1,120.3295586,2026-04-14 12h31.06.440388 +0800
2,diamond,cong,10,l,0,170,170,0,l,1,0.7809275,None,,,,,0,170,170,78,251.5458162,,,,,,,,251.5392204,252.030451,252.812294,,,,,,,,,,l,1,0.7809275,None,,,,,,p004,2026-04-14_12h31.06.147,Flanker Compatibility Task,,2026.1.1,120.3295586,2026-04-14 12h31.06.440388 +0800
2,diamond,incong,10,l,0,171,171,0,l,1,0.730986,None,,,,,0,171,171,90,252.8202214,,,,,,,,252.8132439,253.3078553,254.0469962,,,,,,,,,,l,1,0.730986,None,,,,,,p004,2026-04-14_12h31.06.147,Flanker Compatibility Task,,2026.1.1,120.3295586,2026-04-14 12h31.06.440388 +0800
4,diamond,cong,-10,l,1,172,172,0,l,1,0.6504794,None,,,,,0,172,172,169,254.0538524,,,,,,,,254.0486782,254.5503879,255.2044696,,,,,,,,,,l,1,0.6504794,None,,,,,,p004,2026-04-14_12h31.06.147,Flanker Compatibility Task,,2026.1.1,120.3295586,2026-04-14 12h31.06.440388 +0800
1,diamond,incong,10,l,0,173,173,0,l,1,0.6213124,None,,,,,0,173,173,42,255.2111386,,,,,,,,255.2057799,255.6988328,256.3217821,,,,,,,,,,l,1,0.6213124,None,,,,,,p004,2026-04-14_12h31.06.147,Flanker Compatibility Task,,2026.1.1,120.3295586,2026-04-14 12h31.06.440388 +0800
4,square,incong,-10,a,2,174,174,0,a,1,0.5312899,None,,,,,0,174,174,158,256.3274341,,,,,,,,256.322981,256.8243038,257.3612768,,,,,,,,,,a,1,0.5312899,None,,,,,,p004,2026-04-14_12h31.06.147,Flanker Compatibility Task,,2026.1.1,120.3295586,2026-04-14 12h31.06.440388 +0800
3,diamond,incong,-10,l,2,175,175,0,l,1,0.8384101,None,,,,,0,175,175,134,257.3700106,,,,,,,,257.3626604,257.8636577,258.7033708,,,,,,,,,,l,1,0.8384101,None,,,,,,p004,2026-04-14_12h31.06.147,Flanker Compatibility Task,,2026.1.1,120.3295586,2026-04-14 12h31.06.440388 +0800
4,square,incong,10,a,4,176,176,0,a,1,0.7284792,None,,,,,0,176,176,166,258.7100664,,,,,,,,258.7049636,259.1980049,259.9287257,,,,,,,,,,a,1,0.7284792,None,,,,,,p004,2026-04-14_12h31.06.147,Flanker Compatibility Task,,2026.1.1,120.3295586,2026-04-14 12h31.06.440388 +0800
2,square,incong,10,a,0,177,177,0,a,1,0.4849045,None,,,,,0,177,177,66,259.9353484,,,,,,,,259.9304598,260.4306154,260.9206057,,,,,,,,,,a,1,0.4849045,None,,,,,,p004,2026-04-14_12h31.06.147,Flanker Compatibility Task,,2026.1.1,120.3295586,2026-04-14 12h31.06.440388 +0800
4,square,incong,-10,a,3,178,178,0,a,1,0.993913,None,,,,,0,178,178,159,260.927191,,,,,,,,260.9224708,261.4241947,262.4190574,,,,,,,,,,a,1,0.993913,None,,,,,,p004,2026-04-14_12h31.06.147,Flanker Compatibility Task,,2026.1.1,120.3295586,2026-04-14 12h31.06.440388 +0800
3,diamond,cong,10,l,3,179,179,0,l,1,1.1136418,None,,,,,0,179,179,129,262.4259632,,,,,,,,262.4204787,262.9135956,264.0345285,,,,,,,,,,l,1,1.1136418,None,,,,,,p004,2026-04-14_12h31.06.147,Flanker Compatibility Task,,2026.1.1,120.3295586,2026-04-14 12h31.06.440388 +0800
1,diamond,cong,10,l,5,180,180,0,l,1,0.4873454,None,,,,,0,180,180,35,264.0420825,,,,,,,,264.0357739,264.5291544,265.0190223,,,,,,,,,,l,1,0.4873454,None,,,,,,p004,2026-04-14_12h31.06.147,Flanker Compatibility Task,,2026.1.1,120.3295586,2026-04-14 12h31.06.440388 +0800
2,diamond,incong,-10,l,3,181,181,0,l,1,0.5657953,None,,,,,0,181,181,87,265.0264459,,,,,,,,265.0203549,265.5215702,266.0933685,,,,,,,,,,l,1,0.5657953,None,,,,,,p004,2026-04-14_12h31.06.147,Flanker Compatibility Task,,2026.1.1,120.3295586,2026-04-14 12h31.06.440388 +0800
1,square,incong,-10,a,1,182,182,0,a,1,0.6346256,None,,,,,0,182,182,13,266.1000151,,,,,,,,266.0943047,266.5961005,267.2339994,,,,,,,,,,a,1,0.6346256,None,,,,,,p004,2026-04-14_12h31.06.147,Flanker Compatibility Task,,2026.1.1,120.3295586,2026-04-14 12h31.06.440388 +0800
4,square,incong,-10,a,5,183,183,0,a,1,0.8964032,None,,,,,0,183,183,161,267.2421011,,,,,,,,267.2355156,267.7295649,268.6268273,,,,,,,,,,a,1,0.8964032,None,,,,,,p004,2026-04-14_12h31.06.147,Flanker Compatibility Task,,2026.1.1,120.3295586,2026-04-14 12h31.06.440388 +0800
3,diamond,incong,10,l,1,184,184,0,l,1,0.83286,None,,,,,0,184,184,139,268.6327712,,,,,,,,268.6282721,269.1293272,269.9668157,,,,,,,,,,l,1,0.83286,None,,,,,,p004,2026-04-14_12h31.06.147,Flanker Compatibility Task,,2026.1.1,120.3295586,2026-04-14 12h31.06.440388 +0800
2,square,cong,10,a,5,185,185,0,a,1,0.6328344,None,,,,,0,185,185,59,269.9749179,,,,,,,,269.9680538,270.4606301,271.0997172,,,,,,,,,,a,1,0.6328344,None,,,,,,p004,2026-04-14_12h31.06.147,Flanker Compatibility Task,,2026.1.1,120.3295586,2026-04-14 12h31.06.440388 +0800
2,square,cong,-10,a,1,186,186,0,a,1,0.4865775,None,,,,,0,186,186,49,271.1082434,,,,,,,,271.1012099,271.5948821,272.0834177,,,,,,,,,,a,1,0.4865775,None,,,,,,p004,2026-04-14_12h31.06.147,Flanker Compatibility Task,,2026.1.1,120.3295586,2026-04-14 12h31.06.440388 +0800
2,square,incong,-10,a,0,187,187,0,l,0,0.6178333,None,,,,,0,187,187,60,272.0909352,,,,,,,,272.0844042,272.5774703,273.2000674,,,,,,,,,,l,0,0.6178333,None,,,,,,p004,2026-04-14_12h31.06.147,Flanker Compatibility Task,,2026.1.1,120.3295586,2026-04-14 12h31.06.440388 +0800
3,square,incong,-10,a,0,188,188,0,a,1,0.5573973,None,,,,,0,188,188,108,273.2076691,,,,,,,,273.2014282,273.7013489,274.2595645,,,,,,,,,,a,1,0.5573973,None,,,,,,p004,2026-04-14_12h31.06.147,Flanker Compatibility Task,,2026.1.1,120.3295586,2026-04-14 12h31.06.440388 +0800
1,square,cong,-10,a,2,189,189,0,a,1,0.4514565,None,,,,,0,189,189,2,274.265372,,,,,,,,274.2608983,274.7607494,275.2165445,,,,,,,,,,a,1,0.4514565,None,,,,,,p004,2026-04-14_12h31.06.147,Flanker Compatibility Task,,2026.1.1,120.3295586,2026-04-14 12h31.06.440388 +0800
3,diamond,incong,-10,l,4,190,190,0,l,1,0.9365368,None,,,,,0,190,190,136,275.223544,,,,,,,,275.2180652,275.7193336,276.6581967,,,,,,,,,,l,1,0.9365368,None,,,,,,p004,2026-04-14_12h31.06.147,Flanker Compatibility Task,,2026.1.1,120.3295586,2026-04-14 12h31.06.440388 +0800
1,diamond,cong,-10,l,0,191,191,0,l,1,0.5094181,None,,,,,0,191,191,24,276.6650873,,,,,,,,276.6594476,277.1600852,277.6726859,,,,,,,,,,l,1,0.5094181,None,,,,,,p004,2026-04-14_12h31.06.147,Flanker Compatibility Task,,2026.1.1,120.3295586,2026-04-14 12h31.06.440388 +0800
,,,,,,,,,,,,,,,,,,,,,,,,,,,,,,,,,,,,,,,,,,,,,277.6728777,278.8317325,space,1.1507129,None,p004,2026-04-14_12h31.06.147,Flanker Compatibility Task,,2026.1.1,120.3295586,2026-04-14 12h31.06.440388 +0800
