difficulty,target_type,compatibility,dist_pos_x,ans,target_idx,thisN,thisTrialN,thisRepN,Anskey.keys,Anskey.corr,Anskey.rt,Anskey.duration,Prac_Loop.thisRepN,Prac_Loop.thisTrialN,Prac_Loop.thisN,Prac_Loop.thisIndex,Trials_Loop.thisRepN,Trials_Loop.thisTrialN,Trials_Loop.thisN,Trials_Loop.thisIndex,thisRow.t,notes,piloting,Intro.started,Intro.stopped,Intro_keyresp.keys,Intro_keyresp.rt,Intro_keyresp.duration,Trial_Routine.started,Anskey.started,Trial_Routine.stopped,Prac_Loop.Anskey.keys,Prac_Loop.Anskey.corr,Prac_Loop.Anskey.rt,Prac_Loop.Anskey.duration,Ready.started,Ready.stopped,Ready_keyresp.keys,Ready_keyresp.rt,Ready_keyresp.duration,Trials_Loop.Anskey.keys,Trials_Loop.Anskey.corr,Trials_Loop.Anskey.rt,Trials_Loop.Anskey.duration,ThankYou.started,ThankYou.stopped,Thanks_keyresp.keys,Thanks_keyresp.rt,Thanks_keyresp.duration,participant,date,expName,expVersion,psychopyVersion,frameRate,expStart
,,,,,,,,,,,,,,,,,,,,,,,FALSE,0.007883,4.339244300033897,space,3.837030599999707,None,,,,,,,,,,,,,,,,,,,,,,p005,2026-04-14_13h43.54.417,Flanker Compatibility Task,,2026.1.1,120.99916265899375,2026-04-14 13h43.54.836527 +0800
1,square,cong,-10,a,1,0,0,0,a,1,0.6429973000194877,None,0,0,0,0,,,,,4.359500700025819,,,,,,,,4.352481400012039,4.8339786,5.483647399989422,a,1,0.6429973000194877,None,,,,,,,,,,,,,,,p005,2026-04-14_13h43.54.417,Flanker Compatibility Task,,2026.1.1,120.99916265899375,2026-04-14 13h43.54.836527 +0800
1,diamond,incong,-10,l,5,1,1,0,l,1,0.5515500999754295,None,0,1,1,3,,,,,5.491078399994876,,,,,,,,5.484793699986767,5.978508700034581,6.533504299994092,l,1,0.5515500999754295,None,,,,,,,,,,,,,,,p005,2026-04-14_13h43.54.417,Flanker Compatibility Task,,2026.1.1,120.99916265899375,2026-04-14 13h43.54.836527 +0800
3,square,cong,-10,a,1,2,2,0,l,0,1.3551908999797888,None,0,2,2,8,,,,,6.541445300041232,,,,,,,,6.5348401,7.036759500042535,8.399525100016035,l,0,1.3551908999797888,None,,,,,,,,,,,,,,,p005,2026-04-14_13h43.54.417,Flanker Compatibility Task,,2026.1.1,120.99916265899375,2026-04-14 13h43.54.836527 +0800
2,square,incong,-10,a,2,3,3,0,a,1,0.9074821000103839,None,0,3,3,5,,,,,8.407483600021806,,,,,,,,8.4007484,8.894279000000097,9.807869200012647,a,1,0.9074821000103839,None,,,,,,,,,,,,,,,p005,2026-04-14_13h43.54.417,Flanker Compatibility Task,,2026.1.1,120.99916265899375,2026-04-14 13h43.54.836527 +0800
4,diamond,cong,-10,l,4,4,4,0,l,1,1.0867726999567822,None,0,4,4,14,,,,,9.815165700041689,,,,,,,,9.8093194,10.303271100041457,11.390900600003079,l,1,1.0867726999567822,None,,,,,,,,,,,,,,,p005,2026-04-14_13h43.54.417,Flanker Compatibility Task,,2026.1.1,120.99916265899375,2026-04-14 13h43.54.836527 +0800
3,square,incong,10,a,5,5,5,0,a,1,0.5442891,None,0,5,5,9,,,,,11.398216100002173,,,,,,,,11.392181500035804,11.892400400014594,12.440942600020207,a,1,0.5442891,None,,,,,,,,,,,,,,,p005,2026-04-14_13h43.54.417,Flanker Compatibility Task,,2026.1.1,120.99916265899375,2026-04-14 13h43.54.836527 +0800
1,square,incong,10,a,3,6,6,0,a,1,0.8035464999848045,None,0,6,6,1,,,,,12.447958500008099,,,,,,,,12.442212700028904,12.943127400008962,13.749002500029746,a,1,0.8035464999848045,None,,,,,,,,,,,,,,,p005,2026-04-14_13h43.54.417,Flanker Compatibility Task,,2026.1.1,120.99916265899375,2026-04-14 13h43.54.836527 +0800
2,diamond,cong,-10,l,3,7,7,0,l,1,1.2752314999816008,None,0,7,7,6,,,,,13.755468300019857,,,,,,,,13.750425300037023,14.250743700016756,15.530431899998803,l,1,1.2752314999816008,None,,,,,,,,,,,,,,,p005,2026-04-14_13h43.54.417,Flanker Compatibility Task,,2026.1.1,120.99916265899375,2026-04-14 13h43.54.836527 +0800
2,diamond,incong,10,l,0,8,8,0,l,1,0.8407098999596201,None,0,8,8,7,,,,,15.537978500011377,,,,,,,,15.531637200037949,16.03056420001667,16.87864410004113,l,1,0.8407098999596201,None,,,,,,,,,,,,,,,p005,2026-04-14_13h43.54.417,Flanker Compatibility Task,,2026.1.1,120.99916265899375,2026-04-14 13h43.54.836527 +0800
2,square,cong,10,a,5,9,9,0,a,1,0.5279314999934286,None,0,9,9,4,,,,,16.886316300020553,,,,,,,,16.879547799995635,17.381973500014283,17.912677399988752,a,1,0.5279314999934286,None,,,,,,,,,,,,,,,p005,2026-04-14_13h43.54.417,Flanker Compatibility Task,,2026.1.1,120.99916265899375,2026-04-14 13h43.54.836527 +0800
3,diamond,cong,10,l,1,10,10,0,l,1,0.9170651999884285,None,0,10,10,10,,,,,17.919662500033155,,,,,,,,17.913784600037616,18.407244400004856,19.32924550003372,l,1,0.9170651999884285,None,,,,,,,,,,,,,,,p005,2026-04-14_13h43.54.417,Flanker Compatibility Task,,2026.1.1,120.99916265899375,2026-04-14 13h43.54.836527 +0800
4,diamond,incong,10,l,2,11,11,0,l,1,1.5275655000004917,None,0,11,11,15,,,,,19.335645699989982,,,,,,,,19.330760499986354,19.829902400029823,21.361800600017887,l,1,1.5275655000004917,None,,,,,,,,,,,,,,,p005,2026-04-14_13h43.54.417,Flanker Compatibility Task,,2026.1.1,120.99916265899375,2026-04-14 13h43.54.836527 +0800
3,diamond,incong,-10,l,4,12,12,0,l,1,1.2494124000077136,None,0,12,12,11,,,,,21.36829310003668,,,,,,,,21.36326180002652,21.863548499997705,23.11973279999802,l,1,1.2494124000077136,None,,,,,,,,,,,,,,,p005,2026-04-14_13h43.54.417,Flanker Compatibility Task,,2026.1.1,120.99916265899375,2026-04-14 13h43.54.836527 +0800
4,square,incong,-10,a,1,13,13,0,a,1,0.7278711999533698,None,0,13,13,13,,,,,23.126290199987125,,,,,,,,23.121301400009543,23.615634199988563,24.351698599988595,a,1,0.7278711999533698,None,,,,,,,,,,,,,,,p005,2026-04-14_13h43.54.417,Flanker Compatibility Task,,2026.1.1,120.99916265899375,2026-04-14 13h43.54.836527 +0800
4,square,cong,10,a,5,14,14,0,a,1,0.8055044999928214,None,0,14,14,12,,,,,24.3592283,,,,,,,,24.353116500016768,24.847670199989807,25.660132999997586,a,1,0.8055044999928214,None,,,,,,,,,,,,,,,p005,2026-04-14_13h43.54.417,Flanker Compatibility Task,,2026.1.1,120.99916265899375,2026-04-14 13h43.54.836527 +0800
1,diamond,cong,10,l,0,15,15,0,l,1,0.6203614000114612,None,0,15,15,2,,,,,25.667557800014038,,,,,,,,25.660981799999718,26.161089900007937,26.78528050001478,l,1,0.6203614000114612,None,,,,,,,,,,,,,,,p005,2026-04-14_13h43.54.417,Flanker Compatibility Task,,2026.1.1,120.99916265899375,2026-04-14 13h43.54.836527 +0800
,,,,,,,,,,,,,,,,,,,,,,,,,,,,,,,,,,,,26.785492900002282,33.71604400000069,space,6.429870799998753,None,,,,,,,,,,p005,2026-04-14_13h43.54.417,Flanker Compatibility Task,,2026.1.1,120.99916265899375,2026-04-14 13h43.54.836527 +0800
1,square,cong,10,a,3,0,0,0,a,1,0.5987014999845996,None,,,,,0,0,0,9,33.77044819999719,,,,,,,,33.766067199991085,34.21689370000968,34.82165599998552,,,,,,,,,,a,1,0.5987014999845996,None,,,,,,p005,2026-04-14_13h43.54.417,Flanker Compatibility Task,,2026.1.1,120.99916265899375,2026-04-14 13h43.54.836527 +0800
1,square,incong,10,a,4,1,1,0,a,1,0.4635973999975249,None,,,,,0,1,1,22,34.82876450003823,,,,,,,,34.822948799992446,35.3159928,35.787358700006735,,,,,,,,,,a,1,0.4635973999975249,None,,,,,,p005,2026-04-14_13h43.54.417,Flanker Compatibility Task,,2026.1.1,120.99916265899375,2026-04-14 13h43.54.836527 +0800
3,square,cong,-10,a,3,2,2,0,a,1,1.116169599990826,None,,,,,0,2,2,99,35.79554120003013,,,,,,,,35.78867010003887,36.28356489998987,37.40403630002402,,,,,,,,,,a,1,1.116169599990826,None,,,,,,p005,2026-04-14_13h43.54.417,Flanker Compatibility Task,,2026.1.1,120.99916265899375,2026-04-14 13h43.54.836527 +0800
3,diamond,incong,10,l,3,3,3,0,l,1,1.1455037000123411,None,,,,,0,3,3,141,37.4120253,,,,,,,,37.40512770001078,37.90022000001045,39.05323810002301,,,,,,,,,,l,1,1.1455037000123411,None,,,,,,p005,2026-04-14_13h43.54.417,Flanker Compatibility Task,,2026.1.1,120.99916265899375,2026-04-14 13h43.54.836527 +0800
4,diamond,cong,10,l,3,4,4,0,l,1,0.8836209,None,,,,,0,4,4,177,39.06117370002903,,,,,,,,39.05428159999428,39.54728930001147,40.43735540000489,,,,,,,,,,l,1,0.8836209,None,,,,,,p005,2026-04-14_13h43.54.417,Flanker Compatibility Task,,2026.1.1,120.99916265899375,2026-04-14 13h43.54.836527 +0800
2,square,incong,10,a,2,5,5,0,a,1,1.0418356000445783,None,,,,,0,5,5,68,40.44397040002514,,,,,,,,40.43883470003493,40.93815080000786,41.98621910001384,,,,,,,,,,a,1,1.0418356000445783,None,,,,,,p005,2026-04-14_13h43.54.417,Flanker Compatibility Task,,2026.1.1,120.99916265899375,2026-04-14 13h43.54.836527 +0800
4,square,cong,-10,a,5,6,6,0,a,1,0.6272740000276826,None,,,,,0,6,6,149,41.993902800022624,,,,,,,,41.98762040003203,42.48286510002799,43.11103379999986,,,,,,,,,,a,1,0.6272740000276826,None,,,,,,p005,2026-04-14_13h43.54.417,Flanker Compatibility Task,,2026.1.1,120.99916265899375,2026-04-14 13h43.54.836527 +0800
1,square,incong,-10,a,3,7,7,0,a,1,0.7091798,None,,,,,0,7,7,15,43.118436000018846,,,,,,,,43.11226800002623,43.61468190001324,44.32820719998563,,,,,,,,,,a,1,0.7091798,None,,,,,,p005,2026-04-14_13h43.54.417,Flanker Compatibility Task,,2026.1.1,120.99916265899375,2026-04-14 13h43.54.836527 +0800
3,diamond,incong,10,l,0,8,8,0,l,1,0.8349432999966666,None,,,,,0,8,8,138,44.33476850000443,,,,,,,,44.32960669999011,44.82857180002611,45.66879910003627,,,,,,,,,,l,1,0.8349432999966666,None,,,,,,p005,2026-04-14_13h43.54.417,Flanker Compatibility Task,,2026.1.1,120.99916265899375,2026-04-14 13h43.54.836527 +0800
2,square,incong,-10,a,4,9,9,0,a,1,0.5778612000285648,None,,,,,0,9,9,64,45.677163999993354,,,,,,,,45.67004930000985,46.16365619999124,46.7431748,,,,,,,,,,a,1,0.5778612000285648,None,,,,,,p005,2026-04-14_13h43.54.417,Flanker Compatibility Task,,2026.1.1,120.99916265899375,2026-04-14 13h43.54.836527 +0800
2,square,cong,10,a,4,10,10,0,a,1,0.5078382000210695,None,,,,,0,10,10,58,46.7508507,,,,,,,,46.74435640004231,47.23701710003661,47.751144400041085,,,,,,,,,,a,1,0.5078382000210695,None,,,,,,p005,2026-04-14_13h43.54.417,Flanker Compatibility Task,,2026.1.1,120.99916265899375,2026-04-14 13h43.54.836527 +0800
1,diamond,incong,-10,l,1,11,11,0,l,1,0.4873689000378363,None,,,,,0,11,11,37,47.75885330000892,,,,,,,,47.752012700017076,48.24682270002086,48.73516720003681,,,,,,,,,,l,1,0.4873689000378363,None,,,,,,p005,2026-04-14_13h43.54.417,Flanker Compatibility Task,,2026.1.1,120.99916265899375,2026-04-14 13h43.54.836527 +0800
1,diamond,cong,10,l,0,12,12,0,l,1,0.5751684000133537,None,,,,,0,12,12,30,48.741980299993884,,,,,,,,48.73618649999844,49.2392375,49.81752650003182,,,,,,,,,,l,1,0.5751684000133537,None,,,,,,p005,2026-04-14_13h43.54.417,Flanker Compatibility Task,,2026.1.1,120.99916265899375,2026-04-14 13h43.54.836527 +0800
4,square,cong,10,a,2,13,13,0,a,1,1.127429599990137,None,,,,,0,13,13,152,49.82521430001361,,,,,,,,49.81898630002979,50.31133840000257,51.4434714,,,,,,,,,,a,1,1.127429599990137,None,,,,,,p005,2026-04-14_13h43.54.417,Flanker Compatibility Task,,2026.1.1,120.99916265899375,2026-04-14 13h43.54.836527 +0800
4,square,incong,10,a,2,14,14,0,a,1,0.8269690999877639,None,,,,,0,14,14,164,51.45005059998948,,,,,,,,51.44483809999656,51.947074400028214,52.775857000029646,,,,,,,,,,a,1,0.8269690999877639,None,,,,,,p005,2026-04-14_13h43.54.417,Flanker Compatibility Task,,2026.1.1,120.99916265899375,2026-04-14 13h43.54.836527 +0800
2,square,cong,10,a,1,15,15,0,a,1,0.5633536000386812,None,,,,,0,15,15,55,52.78276680002455,,,,,,,,52.77724810002837,53.27142990002176,53.84149110002909,,,,,,,,,,a,1,0.5633536000386812,None,,,,,,p005,2026-04-14_13h43.54.417,Flanker Compatibility Task,,2026.1.1,120.99916265899375,2026-04-14 13h43.54.836527 +0800
2,diamond,cong,-10,l,5,16,16,0,l,1,0.6370128000271507,None,,,,,0,16,16,77,53.849443199986126,,,,,,,,53.842681400012225,54.33685439999681,54.97470110002905,,,,,,,,,,l,1,0.6370128000271507,None,,,,,,p005,2026-04-14_13h43.54.417,Flanker Compatibility Task,,2026.1.1,120.99916265899375,2026-04-14 13h43.54.836527 +0800
1,diamond,cong,-10,l,4,17,17,0,l,1,0.4589916000259109,None,,,,,0,17,17,28,54.98180469998624,,,,,,,,54.97585440002149,55.46879290003562,55.93262330000289,,,,,,,,,,l,1,0.4589916000259109,None,,,,,,p005,2026-04-14_13h43.54.417,Flanker Compatibility Task,,2026.1.1,120.99916265899375,2026-04-14 13h43.54.836527 +0800
1,diamond,cong,-10,l,3,18,18,0,l,1,0.5173154000076465,None,,,,,0,18,18,27,55.940113899996504,,,,,,,,55.933869200001936,56.43401620001532,56.95707870001206,,,,,,,,,,l,1,0.5173154000076465,None,,,,,,p005,2026-04-14_13h43.54.417,Flanker Compatibility Task,,2026.1.1,120.99916265899375,2026-04-14 13h43.54.836527 +0800
1,square,incong,-10,a,4,19,19,0,a,1,0.5494126,None,,,,,0,19,19,16,56.96488009998575,,,,,,,,56.958257400023285,57.450107000011485,58.00687470001867,,,,,,,,,,a,1,0.5494126,None,,,,,,p005,2026-04-14_13h43.54.417,Flanker Compatibility Task,,2026.1.1,120.99916265899375,2026-04-14 13h43.54.836527 +0800
4,square,cong,-10,a,3,20,20,0,a,1,0.6621969999978319,None,,,,,0,20,20,147,58.014669299998786,,,,,,,,58.00830600003246,58.50204140000278,59.16505770001095,,,,,,,,,,a,1,0.6621969999978319,None,,,,,,p005,2026-04-14_13h43.54.417,Flanker Compatibility Task,,2026.1.1,120.99916265899375,2026-04-14 13h43.54.836527 +0800
3,diamond,cong,10,l,3,21,21,0,l,1,0.7681319999974221,None,,,,,0,21,21,129,59.17264850001084,,,,,,,,59.16625180002302,59.658909199992195,60.432998200005386,,,,,,,,,,l,1,0.7681319999974221,None,,,,,,p005,2026-04-14_13h43.54.417,Flanker Compatibility Task,,2026.1.1,120.99916265899375,2026-04-14 13h43.54.836527 +0800
1,square,incong,10,a,0,22,22,0,a,1,0.5678684000158682,None,,,,,0,22,22,18,60.439262000028975,,,,,,,,60.434242699993774,60.93505000002915,61.50607130001299,,,,,,,,,,a,1,0.5678684000158682,None,,,,,,p005,2026-04-14_13h43.54.417,Flanker Compatibility Task,,2026.1.1,120.99916265899375,2026-04-14 13h43.54.836527 +0800
2,diamond,cong,-10,l,0,23,23,0,l,1,0.6763610999914818,None,,,,,0,23,23,72,61.513676700007636,,,,,,,,61.50699950003764,61.99898060003761,62.682474,,,,,,,,,,l,1,0.6763610999914818,None,,,,,,p005,2026-04-14_13h43.54.417,Flanker Compatibility Task,,2026.1.1,120.99916265899375,2026-04-14 13h43.54.836527 +0800
2,square,cong,10,a,5,24,24,0,a,1,0.5219684999901801,None,,,,,0,24,24,59,62.68867240002146,,,,,,,,62.68374370003585,63.180993899994064,63.70584690000396,,,,,,,,,,a,1,0.5219684999901801,None,,,,,,p005,2026-04-14_13h43.54.417,Flanker Compatibility Task,,2026.1.1,120.99916265899375,2026-04-14 13h43.54.836527 +0800
4,square,cong,-10,a,0,25,25,0,a,1,0.7222826000070199,None,,,,,0,25,25,144,63.71300650003832,,,,,,,,63.70725199999288,64.20208640000783,64.93047140003182,,,,,,,,,,a,1,0.7222826000070199,None,,,,,,p005,2026-04-14_13h43.54.417,Flanker Compatibility Task,,2026.1.1,120.99916265899375,2026-04-14 13h43.54.836527 +0800
3,square,cong,10,a,5,26,26,0,a,1,0.46339990000706166,None,,,,,0,26,26,107,64.93813510000473,,,,,,,,64.93203050002921,65.42603760003112,65.89781910000602,,,,,,,,,,a,1,0.46339990000706166,None,,,,,,p005,2026-04-14_13h43.54.417,Flanker Compatibility Task,,2026.1.1,120.99916265899375,2026-04-14 13h43.54.836527 +0800
3,diamond,incong,-10,l,3,27,27,0,l,1,0.8772547999978997,None,,,,,0,27,27,135,65.90501809999114,,,,,,,,65.899267,66.39659300004132,67.27974319999339,,,,,,,,,,l,1,0.8772547999978997,None,,,,,,p005,2026-04-14_13h43.54.417,Flanker Compatibility Task,,2026.1.1,120.99916265899375,2026-04-14 13h43.54.836527 +0800
3,diamond,cong,-10,l,1,28,28,0,l,1,0.839345,None,,,,,0,28,28,121,67.28729290002957,,,,,,,,67.28108580003027,67.77547350001987,68.62135010003112,,,,,,,,,,l,1,0.839345,None,,,,,,p005,2026-04-14_13h43.54.417,Flanker Compatibility Task,,2026.1.1,120.99916265899375,2026-04-14 13h43.54.836527 +0800
2,diamond,incong,-10,l,4,29,29,0,l,1,0.6299039999721572,None,,,,,0,29,29,88,68.62890000001062,,,,,,,,68.6225778,69.12289609998697,69.7552607,,,,,,,,,,l,1,0.6299039999721572,None,,,,,,p005,2026-04-14_13h43.54.417,Flanker Compatibility Task,,2026.1.1,120.99916265899375,2026-04-14 13h43.54.836527 +0800
3,square,cong,10,a,0,30,30,0,a,1,0.5571897000190802,None,,,,,0,30,30,102,69.76182100002188,,,,,,,,69.7567155,70.25805539998692,70.82063289999496,,,,,,,,,,a,1,0.5571897000190802,None,,,,,,p005,2026-04-14_13h43.54.417,Flanker Compatibility Task,,2026.1.1,120.99916265899375,2026-04-14 13h43.54.836527 +0800
3,square,incong,-10,a,5,31,31,0,a,1,0.8261361,None,,,,,0,31,31,113,70.82861440000124,,,,,,,,70.82197180000367,71.31675910000922,72.14602109999396,,,,,,,,,,a,1,0.8261361,None,,,,,,p005,2026-04-14_13h43.54.417,Flanker Compatibility Task,,2026.1.1,120.99916265899375,2026-04-14 13h43.54.836527 +0800
3,diamond,incong,-10,l,2,32,32,0,l,1,0.9381394000374712,None,,,,,0,32,32,134,72.15295530000003,,,,,,,,72.14744160004193,72.6415215,73.58718840003712,,,,,,,,,,l,1,0.9381394000374712,None,,,,,,p005,2026-04-14_13h43.54.417,Flanker Compatibility Task,,2026.1.1,120.99916265899375,2026-04-14 13h43.54.836527 +0800
2,diamond,cong,10,l,5,33,33,0,l,1,0.7563902999972925,None,,,,,0,33,33,83,73.59526420000475,,,,,,,,73.58819690003293,74.08143920003204,74.84462920000078,,,,,,,,,,l,1,0.7563902999972925,None,,,,,,p005,2026-04-14_13h43.54.417,Flanker Compatibility Task,,2026.1.1,120.99916265899375,2026-04-14 13h43.54.836527 +0800
3,square,incong,-10,a,4,34,34,0,a,1,0.6650837999768555,None,,,,,0,34,34,112,74.85213830001885,,,,,,,,74.8459528,75.33690440002829,76.00348419998772,,,,,,,,,,a,1,0.6650837999768555,None,,,,,,p005,2026-04-14_13h43.54.417,Flanker Compatibility Task,,2026.1.1,120.99916265899375,2026-04-14 13h43.54.836527 +0800
1,square,cong,-10,a,2,35,35,0,a,1,0.5518908000085503,None,,,,,0,35,35,2,76.01012140000239,,,,,,,,76.00473670003703,76.50272370001767,77.06060630001593,,,,,,,,,,a,1,0.5518908000085503,None,,,,,,p005,2026-04-14_13h43.54.417,Flanker Compatibility Task,,2026.1.1,120.99916265899375,2026-04-14 13h43.54.836527 +0800
4,square,cong,10,a,3,36,36,0,a,1,1.2455074000172317,None,,,,,0,36,36,153,77.06829560000915,,,,,,,,77.06201069999952,77.55482870002743,78.80305290000979,,,,,,,,,,a,1,1.2455074000172317,None,,,,,,p005,2026-04-14_13h43.54.417,Flanker Compatibility Task,,2026.1.1,120.99916265899375,2026-04-14 13h43.54.836527 +0800
1,square,cong,-10,a,1,37,37,0,a,1,0.5965528000378981,None,,,,,0,37,37,1,78.8096967,,,,,,,,78.80433579999954,79.30135480000172,79.90260850003688,,,,,,,,,,a,1,0.5965528000378981,None,,,,,,p005,2026-04-14_13h43.54.417,Flanker Compatibility Task,,2026.1.1,120.99916265899375,2026-04-14 13h43.54.836527 +0800
2,square,cong,-10,a,4,38,38,0,a,1,0.7883148000109941,None,,,,,0,38,38,52,79.90990979998605,,,,,,,,79.90387209999608,80.40457900002366,81.19377790001454,,,,,,,,,,a,1,0.7883148000109941,None,,,,,,p005,2026-04-14_13h43.54.417,Flanker Compatibility Task,,2026.1.1,120.99916265899375,2026-04-14 13h43.54.836527 +0800
4,square,incong,10,a,3,39,39,0,a,1,1.0619377000257373,None,,,,,0,39,39,165,81.20082979998551,,,,,,,,81.19578990002628,81.68828619999113,82.75197670003399,,,,,,,,,,a,1,1.0619377000257373,None,,,,,,p005,2026-04-14_13h43.54.417,Flanker Compatibility Task,,2026.1.1,120.99916265899375,2026-04-14 13h43.54.836527 +0800
3,diamond,cong,-10,l,2,40,40,0,l,1,0.8153668000013568,None,,,,,0,40,40,122,82.75850799999898,,,,,,,,82.75344850000693,83.24542669998482,84.06705549999606,,,,,,,,,,l,1,0.8153668000013568,None,,,,,,p005,2026-04-14_13h43.54.417,Flanker Compatibility Task,,2026.1.1,120.99916265899375,2026-04-14 13h43.54.836527 +0800
4,square,incong,-10,a,1,41,41,0,a,1,0.6514458999736235,None,,,,,0,41,41,157,84.07565579999937,,,,,,,,84.06850059999852,84.56086409999989,85.21740900003351,,,,,,,,,,a,1,0.6514458999736235,None,,,,,,p005,2026-04-14_13h43.54.417,Flanker Compatibility Task,,2026.1.1,120.99916265899375,2026-04-14 13h43.54.836527 +0800
1,square,cong,-10,a,5,42,42,0,a,1,0.5657479999936186,None,,,,,0,42,42,5,85.22431860002689,,,,,,,,85.21851229999447,85.70985270000529,86.28319280000869,,,,,,,,,,a,1,0.5657479999936186,None,,,,,,p005,2026-04-14_13h43.54.417,Flanker Compatibility Task,,2026.1.1,120.99916265899375,2026-04-14 13h43.54.836527 +0800
3,square,cong,-10,a,1,43,43,0,a,1,0.8074613999924622,None,,,,,0,43,43,97,86.29080070002237,,,,,,,,86.28457,86.7783039,87.59135760000208,,,,,,,,,,a,1,0.8074613999924622,None,,,,,,p005,2026-04-14_13h43.54.417,Flanker Compatibility Task,,2026.1.1,120.99916265899375,2026-04-14 13h43.54.836527 +0800
4,diamond,incong,10,l,3,44,44,0,l,1,1.0702889999956824,None,,,,,0,44,44,189,87.59899660001975,,,,,,,,87.59240610001143,88.08778130001156,89.16660050000064,,,,,,,,,,l,1,1.0702889999956824,None,,,,,,p005,2026-04-14_13h43.54.417,Flanker Compatibility Task,,2026.1.1,120.99916265899375,2026-04-14 13h43.54.836527 +0800
3,square,cong,10,a,4,45,45,0,a,1,0.5851741999504156,None,,,,,0,45,45,106,89.17356820002897,,,,,,,,89.16798580001341,89.66039780003484,90.25056890002452,,,,,,,,,,a,1,0.5851741999504156,None,,,,,,p005,2026-04-14_13h43.54.417,Flanker Compatibility Task,,2026.1.1,120.99916265899375,2026-04-14 13h43.54.836527 +0800
3,square,cong,-10,a,4,46,46,0,a,1,0.6134424000047147,None,,,,,0,46,46,100,90.25680130004184,,,,,,,,90.25200909998966,90.75046030001249,91.36519360000966,,,,,,,,,,a,1,0.6134424000047147,None,,,,,,p005,2026-04-14_13h43.54.417,Flanker Compatibility Task,,2026.1.1,120.99916265899375,2026-04-14 13h43.54.836527 +0800
3,square,incong,-10,a,0,47,47,0,a,1,0.4864084,None,,,,,0,47,47,108,91.3736293,,,,,,,,91.36651260004146,91.86060120002367,92.34861390001606,,,,,,,,,,a,1,0.4864084,None,,,,,,p005,2026-04-14_13h43.54.417,Flanker Compatibility Task,,2026.1.1,120.99916265899375,2026-04-14 13h43.54.836527 +0800
3,square,incong,-10,a,1,48,48,0,a,1,0.4819209999986924,None,,,,,0,48,48,109,92.35613890003879,,,,,,,,92.34998280002037,92.84407709998777,93.3318587,,,,,,,,,,a,1,0.4819209999986924,None,,,,,,p005,2026-04-14_13h43.54.417,Flanker Compatibility Task,,2026.1.1,120.99916265899375,2026-04-14 13h43.54.836527 +0800
3,square,incong,10,a,3,49,49,0,a,1,0.7953893000376411,None,,,,,0,49,49,117,93.3391294,,,,,,,,93.33317779999925,93.82646840001689,94.62443530000746,,,,,,,,,,a,1,0.7953893000376411,None,,,,,,p005,2026-04-14_13h43.54.417,Flanker Compatibility Task,,2026.1.1,120.99916265899375,2026-04-14 13h43.54.836527 +0800
4,square,incong,10,a,5,50,50,0,a,1,0.9067481000092812,None,,,,,0,50,50,167,94.6304783,,,,,,,,94.62597759999335,95.12629640003433,96.03910400002496,,,,,,,,,,a,1,0.9067481000092812,None,,,,,,p005,2026-04-14_13h43.54.417,Flanker Compatibility Task,,2026.1.1,120.99916265899375,2026-04-14 13h43.54.836527 +0800
3,diamond,cong,10,l,1,51,51,0,l,1,0.6591885999660008,None,,,,,0,51,51,127,96.0467979,,,,,,,,96.04047499998705,96.53321720001986,97.1985026,,,,,,,,,,l,1,0.6591885999660008,None,,,,,,p005,2026-04-14_13h43.54.417,Flanker Compatibility Task,,2026.1.1,120.99916265899375,2026-04-14 13h43.54.836527 +0800
3,diamond,incong,10,l,2,52,52,0,l,1,0.7858828000025824,None,,,,,0,52,52,140,97.20520770002622,,,,,,,,97.19995229999768,97.70171320001828,98.48929540003883,,,,,,,,,,l,1,0.7858828000025824,None,,,,,,p005,2026-04-14_13h43.54.417,Flanker Compatibility Task,,2026.1.1,120.99916265899375,2026-04-14 13h43.54.836527 +0800
3,diamond,cong,-10,l,5,53,53,0,l,1,0.5811397999641486,None,,,,,0,53,53,125,98.4963077,,,,,,,,98.49086439999519,98.98763200000394,99.5719456,,,,,,,,,,l,1,0.5811397999641486,None,,,,,,p005,2026-04-14_13h43.54.417,Flanker Compatibility Task,,2026.1.1,120.99916265899375,2026-04-14 13h43.54.836527 +0800
2,square,incong,10,a,1,54,54,0,a,1,0.46616730000823736,None,,,,,0,54,54,67,99.58017650002148,,,,,,,,99.57324950001203,100.06645660003414,100.53788369998801,,,,,,,,,,a,1,0.46616730000823736,None,,,,,,p005,2026-04-14_13h43.54.417,Flanker Compatibility Task,,2026.1.1,120.99916265899375,2026-04-14 13h43.54.836527 +0800
4,square,incong,10,a,0,55,55,0,a,1,0.5135890999808908,None,,,,,0,55,55,162,100.5458488999866,,,,,,,,100.53930450003827,101.03367720003007,101.55441700003576,,,,,,,,,,a,1,0.5135890999808908,None,,,,,,p005,2026-04-14_13h43.54.417,Flanker Compatibility Task,,2026.1.1,120.99916265899375,2026-04-14 13h43.54.836527 +0800
1,diamond,incong,-10,l,3,56,56,0,l,1,0.7124403999769129,None,,,,,0,56,56,39,101.56205380003667,,,,,,,,101.55556609999621,102.04692789999535,102.76325160003034,,,,,,,,,,l,1,0.7124403999769129,None,,,,,,p005,2026-04-14_13h43.54.417,Flanker Compatibility Task,,2026.1.1,120.99916265899375,2026-04-14 13h43.54.836527 +0800
1,square,incong,10,a,3,57,57,0,a,1,0.5544047000003047,None,,,,,0,57,57,21,102.77096500003245,,,,,,,,102.76436930004274,103.2565498999902,103.81358100002399,,,,,,,,,,a,1,0.5544047000003047,None,,,,,,p005,2026-04-14_13h43.54.417,Flanker Compatibility Task,,2026.1.1,120.99916265899375,2026-04-14 13h43.54.836527 +0800
2,square,cong,-10,a,1,58,58,0,a,1,0.48351190000539646,None,,,,,0,58,58,49,103.8207534000394,,,,,,,,103.81490130000748,104.31626669998514,104.80469429999357,,,,,,,,,,a,1,0.48351190000539646,None,,,,,,p005,2026-04-14_13h43.54.417,Flanker Compatibility Task,,2026.1.1,120.99916265899375,2026-04-14 13h43.54.836527 +0800
3,diamond,incong,-10,l,0,59,59,0,l,1,0.6402538000256754,None,,,,,0,59,59,132,104.81276790000265,,,,,,,,104.8060365000274,105.30630590004148,105.95398049999494,,,,,,,,,,l,1,0.6402538000256754,None,,,,,,p005,2026-04-14_13h43.54.417,Flanker Compatibility Task,,2026.1.1,120.99916265899375,2026-04-14 13h43.54.836527 +0800
2,square,cong,-10,a,2,60,60,0,a,1,0.5370260000345297,None,,,,,0,60,60,50,105.96153860003687,,,,,,,,105.95545370003674,106.4497652000282,106.98733760003233,,,,,,,,,,a,1,0.5370260000345297,None,,,,,,p005,2026-04-14_13h43.54.417,Flanker Compatibility Task,,2026.1.1,120.99916265899375,2026-04-14 13h43.54.836527 +0800
2,diamond,incong,-10,l,0,61,61,0,l,1,0.5435557999880984,None,,,,,0,61,61,84,106.99435290001566,,,,,,,,106.9884378000279,107.48077900003409,108.02922040002886,,,,,,,,,,l,1,0.5435557999880984,None,,,,,,p005,2026-04-14_13h43.54.417,Flanker Compatibility Task,,2026.1.1,120.99916265899375,2026-04-14 13h43.54.836527 +0800
1,diamond,cong,10,l,1,62,62,0,l,1,0.5152803999953903,None,,,,,0,62,62,31,108.03615910001099,,,,,,,,108.03041800000938,108.52311710000504,109.04555040004198,,,,,,,,,,l,1,0.5152803999953903,None,,,,,,p005,2026-04-14_13h43.54.417,Flanker Compatibility Task,,2026.1.1,120.99916265899375,2026-04-14 13h43.54.836527 +0800
1,diamond,cong,10,l,3,63,63,0,l,1,0.4719397000153549,None,,,,,0,63,63,33,109.05287569999928,,,,,,,,109.04685129999416,109.54560549999587,110.0189292000141,,,,,,,,,,l,1,0.4719397000153549,None,,,,,,p005,2026-04-14_13h43.54.417,Flanker Compatibility Task,,2026.1.1,120.99916265899375,2026-04-14 13h43.54.836527 +0800
4,diamond,cong,10,l,2,64,64,0,l,1,1.120893299987074,None,,,,,0,64,64,176,110.02668519999133,,,,,,,,110.0203627999872,110.51213779998943,111.63658280001255,,,,,,,,,,l,1,1.120893299987074,None,,,,,,p005,2026-04-14_13h43.54.417,Flanker Compatibility Task,,2026.1.1,120.99916265899375,2026-04-14 13h43.54.836527 +0800
2,square,cong,-10,a,3,65,65,0,a,1,0.5156689999857917,None,,,,,0,65,65,51,111.64362320001237,,,,,,,,111.63791059999494,112.13712550001219,112.66065040003741,,,,,,,,,,a,1,0.5156689999857917,None,,,,,,p005,2026-04-14_13h43.54.417,Flanker Compatibility Task,,2026.1.1,120.99916265899375,2026-04-14 13h43.54.836527 +0800
3,square,incong,10,a,4,66,66,0,a,1,1.0398177000461146,None,,,,,0,66,66,118,112.66941249999218,,,,,,,,112.66192400001455,113.15431300003547,114.19494260003557,,,,,,,,,,a,1,1.0398177000461146,None,,,,,,p005,2026-04-14_13h43.54.417,Flanker Compatibility Task,,2026.1.1,120.99916265899375,2026-04-14 13h43.54.836527 +0800
3,diamond,incong,10,l,4,67,67,0,l,1,1.8827719999826513,None,,,,,0,67,67,142,114.2015504,,,,,,,,114.19638400000986,114.69507310003974,116.58449979999568,,,,,,,,,,l,1,1.8827719999826513,None,,,,,,p005,2026-04-14_13h43.54.417,Flanker Compatibility Task,,2026.1.1,120.99916265899375,2026-04-14 13h43.54.836527 +0800
2,diamond,incong,-10,l,2,68,68,0,a,0,0.46554220002144575,None,,,,,0,68,68,86,116.59207980002975,,,,,,,,116.58542010001838,117.07809840003029,117.55080450000241,,,,,,,,,,a,0,0.46554220002144575,None,,,,,,p005,2026-04-14_13h43.54.417,Flanker Compatibility Task,,2026.1.1,120.99916265899375,2026-04-14 13h43.54.836527 +0800
2,diamond,incong,10,l,4,69,69,0,a,0,0.8797981000388972,None,,,,,0,69,69,94,117.55814139998984,,,,,,,,117.55174770002486,118.04477780003799,118.92570550000528,,,,,,,,,,a,0,0.8797981000388972,None,,,,,,p005,2026-04-14_13h43.54.417,Flanker Compatibility Task,,2026.1.1,120.99916265899375,2026-04-14 13h43.54.836527 +0800
2,diamond,incong,10,l,5,70,70,0,l,1,0.7559709000051953,None,,,,,0,70,70,95,118.93366460001562,,,,,,,,118.92702390003251,119.42091809998965,120.18386869999813,,,,,,,,,,l,1,0.7559709000051953,None,,,,,,p005,2026-04-14_13h43.54.417,Flanker Compatibility Task,,2026.1.1,120.99916265899375,2026-04-14 13h43.54.836527 +0800
3,square,cong,-10,a,0,71,71,0,a,1,0.7698593999957666,None,,,,,0,71,71,96,120.19228840002324,,,,,,,,120.1852218999993,120.67918000003556,121.45944,,,,,,,,,,a,1,0.7698593999957666,None,,,,,,p005,2026-04-14_13h43.54.417,Flanker Compatibility Task,,2026.1.1,120.99916265899375,2026-04-14 13h43.54.836527 +0800
2,square,incong,-10,a,5,72,72,0,a,1,0.7365194000303745,None,,,,,0,72,72,65,121.4656880000257,,,,,,,,121.46098899998469,121.96182690002024,122.70094180002343,,,,,,,,,,a,1,0.7365194000303745,None,,,,,,p005,2026-04-14_13h43.54.417,Flanker Compatibility Task,,2026.1.1,120.99916265899375,2026-04-14 13h43.54.836527 +0800
4,square,cong,10,a,0,73,73,0,a,1,0.616784,None,,,,,0,73,73,150,122.70728800003417,,,,,,,,122.7024204999907,123.20273850002559,123.82417330000317,,,,,,,,,,a,1,0.616784,None,,,,,,p005,2026-04-14_13h43.54.417,Flanker Compatibility Task,,2026.1.1,120.99916265899375,2026-04-14 13h43.54.836527 +0800
1,diamond,cong,-10,l,0,74,74,0,l,1,0.49347029998898506,None,,,,,0,74,74,24,123.83322750002844,,,,,,,,123.82510200003162,124.31713340000715,124.8164782,,,,,,,,,,l,1,0.49347029998898506,None,,,,,,p005,2026-04-14_13h43.54.417,Flanker Compatibility Task,,2026.1.1,120.99916265899375,2026-04-14 13h43.54.836527 +0800
4,square,cong,10,a,4,75,75,0,a,1,0.8736472000018694,None,,,,,0,75,75,154,124.82379170000786,,,,,,,,124.81790240004193,125.3112933000084,126.19073380000191,,,,,,,,,,a,1,0.8736472000018694,None,,,,,,p005,2026-04-14_13h43.54.417,Flanker Compatibility Task,,2026.1.1,120.99916265899375,2026-04-14 13h43.54.836527 +0800
1,diamond,incong,-10,l,4,76,76,0,l,1,0.5142443999648094,None,,,,,0,76,76,40,126.19847280002432,,,,,,,,126.19188599998597,126.68434610002441,127.20685080002295,,,,,,,,,,l,1,0.5142443999648094,None,,,,,,p005,2026-04-14_13h43.54.417,Flanker Compatibility Task,,2026.1.1,120.99916265899375,2026-04-14 13h43.54.836527 +0800
4,square,cong,-10,a,1,77,77,0,a,1,0.8648431000183336,None,,,,,0,77,77,145,127.21436969999922,,,,,,,,127.20786640001461,127.70324270002311,128.5740025000414,,,,,,,,,,a,1,0.8648431000183336,None,,,,,,p005,2026-04-14_13h43.54.417,Flanker Compatibility Task,,2026.1.1,120.99916265899375,2026-04-14 13h43.54.836527 +0800
3,square,incong,-10,a,3,78,78,0,a,1,0.6364255000371486,None,,,,,0,78,78,111,128.58156130003044,,,,,,,,128.5753207000089,129.06914080004208,129.70655850000912,,,,,,,,,,a,1,0.6364255000371486,None,,,,,,p005,2026-04-14_13h43.54.417,Flanker Compatibility Task,,2026.1.1,120.99916265899375,2026-04-14 13h43.54.836527 +0800
4,square,incong,-10,a,0,79,79,0,a,1,0.4471604,None,,,,,0,79,79,156,129.71472170000197,,,,,,,,129.7079588000197,130.21240800002124,130.66572540003108,,,,,,,,,,a,1,0.4471604,None,,,,,,p005,2026-04-14_13h43.54.417,Flanker Compatibility Task,,2026.1.1,120.99916265899375,2026-04-14 13h43.54.836527 +0800
1,square,incong,10,a,1,80,80,0,a,1,0.4620555000146851,None,,,,,0,80,80,19,130.67162959999405,,,,,,,,130.66666099999566,131.16540560004069,131.63158580003073,,,,,,,,,,a,1,0.4620555000146851,None,,,,,,p005,2026-04-14_13h43.54.417,Flanker Compatibility Task,,2026.1.1,120.99916265899375,2026-04-14 13h43.54.836527 +0800
2,square,incong,10,a,4,81,81,0,a,1,0.6223839999875054,None,,,,,0,81,81,70,131.6388358999975,,,,,,,,131.6324459000025,132.12640110001666,132.75605329999235,,,,,,,,,,a,1,0.6223839999875054,None,,,,,,p005,2026-04-14_13h43.54.417,Flanker Compatibility Task,,2026.1.1,120.99916265899375,2026-04-14 13h43.54.836527 +0800
3,diamond,cong,10,l,4,82,82,0,l,1,0.6430159999872558,None,,,,,0,82,82,130,132.76239390001865,,,,,,,,132.75740569998743,133.25039910001215,133.89804920001188,,,,,,,,,,l,1,0.6430159999872558,None,,,,,,p005,2026-04-14_13h43.54.417,Flanker Compatibility Task,,2026.1.1,120.99916265899375,2026-04-14 13h43.54.836527 +0800
1,diamond,incong,10,l,1,83,83,0,l,1,0.5353849999955855,None,,,,,0,83,83,43,133.9042996999924,,,,,,,,133.89952149998862,134.39629569998942,134.93812840001192,,,,,,,,,,l,1,0.5353849999955855,None,,,,,,p005,2026-04-14_13h43.54.417,Flanker Compatibility Task,,2026.1.1,120.99916265899375,2026-04-14 13h43.54.836527 +0800
1,square,cong,10,a,5,84,84,0,a,1,0.6394414000096731,None,,,,,0,84,84,11,134.94555579998996,,,,,,,,134.93926370004192,135.4375101000187,136.07941390003543,,,,,,,,,,a,1,0.6394414000096731,None,,,,,,p005,2026-04-14_13h43.54.417,Flanker Compatibility Task,,2026.1.1,120.99916265899375,2026-04-14 13h43.54.836527 +0800
2,diamond,incong,10,l,0,85,85,0,l,1,0.6900556999607943,None,,,,,0,85,85,90,136.08703340002103,,,,,,,,136.0806282000267,136.57403980003437,137.27097640000284,,,,,,,,,,l,1,0.6900556999607943,None,,,,,,p005,2026-04-14_13h43.54.417,Flanker Compatibility Task,,2026.1.1,120.99916265899375,2026-04-14 13h43.54.836527 +0800
4,diamond,incong,-10,l,2,86,86,0,l,1,0.9857179000391625,None,,,,,0,86,86,182,137.27870770002482,,,,,,,,137.27262709999923,137.7707972000353,138.76189560000785,,,,,,,,,,l,1,0.9857179000391625,None,,,,,,p005,2026-04-14_13h43.54.417,Flanker Compatibility Task,,2026.1.1,120.99916265899375,2026-04-14 13h43.54.836527 +0800
4,square,cong,10,a,5,87,87,0,a,1,0.5172756999963894,None,,,,,0,87,87,155,138.7694399000029,,,,,,,,138.76306110003497,139.2547880000202,139.77828690002207,,,,,,,,,,a,1,0.5172756999963894,None,,,,,,p005,2026-04-14_13h43.54.417,Flanker Compatibility Task,,2026.1.1,120.99916265899375,2026-04-14 13h43.54.836527 +0800
4,diamond,cong,10,l,4,88,88,0,l,1,1.2077537000295706,None,,,,,0,88,88,178,139.78584880003473,,,,,,,,139.77937609999208,140.26981710002292,141.47860939998645,,,,,,,,,,l,1,1.2077537000295706,None,,,,,,p005,2026-04-14_13h43.54.417,Flanker Compatibility Task,,2026.1.1,120.99916265899375,2026-04-14 13h43.54.836527 +0800
4,diamond,cong,10,l,5,89,89,0,l,1,0.7834001000155695,None,,,,,0,89,89,179,141.48558580002282,,,,,,,,141.48030300001847,141.9795191999874,142.7695199,,,,,,,,,,l,1,0.7834001000155695,None,,,,,,p005,2026-04-14_13h43.54.417,Flanker Compatibility Task,,2026.1.1,120.99916265899375,2026-04-14 13h43.54.836527 +0800
4,square,incong,10,a,4,90,90,0,a,1,0.6552410000003874,None,,,,,0,90,90,166,142.77708810003242,,,,,,,,142.7705972000258,143.27100170002086,143.92845280002803,,,,,,,,,,a,1,0.6552410000003874,None,,,,,,p005,2026-04-14_13h43.54.417,Flanker Compatibility Task,,2026.1.1,120.99916265899375,2026-04-14 13h43.54.836527 +0800
3,square,cong,10,a,1,91,91,0,a,1,0.5888650999986567,None,,,,,0,91,91,103,143.9363224999979,,,,,,,,143.92990570003167,144.42886470002122,145.0195734000299,,,,,,,,,,a,1,0.5888650999986567,None,,,,,,p005,2026-04-14_13h43.54.417,Flanker Compatibility Task,,2026.1.1,120.99916265899375,2026-04-14 13h43.54.836527 +0800
4,diamond,cong,-10,l,3,92,92,0,l,1,0.7064647000515833,None,,,,,0,92,92,171,145.02642519999063,,,,,,,,145.02139920002082,145.52089129999513,146.2284375000163,,,,,,,,,,l,1,0.7064647000515833,None,,,,,,p005,2026-04-14_13h43.54.417,Flanker Compatibility Task,,2026.1.1,120.99916265899375,2026-04-14 13h43.54.836527 +0800
1,square,incong,-10,a,2,93,93,0,l,0,0.5471251,None,,,,,0,93,93,14,146.23460050002905,,,,,,,,146.2297358000069,146.72986160003347,147.28463549999287,,,,,,,,,,l,0,0.5471251,None,,,,,,p005,2026-04-14_13h43.54.417,Flanker Compatibility Task,,2026.1.1,120.99916265899375,2026-04-14 13h43.54.836527 +0800
3,diamond,cong,-10,l,4,94,94,0,l,1,0.7482776999822818,None,,,,,0,94,94,124,147.29359600000316,,,,,,,,147.2859865000355,147.78058680001413,148.53484700003173,,,,,,,,,,l,1,0.7482776999822818,None,,,,,,p005,2026-04-14_13h43.54.417,Flanker Compatibility Task,,2026.1.1,120.99916265899375,2026-04-14 13h43.54.836527 +0800
2,square,cong,10,a,0,95,95,0,a,1,0.5069967,None,,,,,0,95,95,54,148.5432496999856,,,,,,,,148.5360512000043,149.0296066,149.5426050000242,,,,,,,,,,a,1,0.5069967,None,,,,,,p005,2026-04-14_13h43.54.417,Flanker Compatibility Task,,2026.1.1,120.99916265899375,2026-04-14 13h43.54.836527 +0800
4,square,incong,-10,a,2,96,96,0,a,1,0.7598033999674954,None,,,,,0,96,96,158,149.5503297999967,,,,,,,,149.54371990001528,150.03717220004182,150.80075629998464,,,,,,,,,,a,1,0.7598033999674954,None,,,,,,p005,2026-04-14_13h43.54.417,Flanker Compatibility Task,,2026.1.1,120.99916265899375,2026-04-14 13h43.54.836527 +0800
2,square,cong,-10,a,5,97,97,0,a,1,0.5802066000178456,None,,,,,0,97,97,53,150.80815440003062,,,,,,,,150.8017988000065,151.2948365000193,151.87660960003268,,,,,,,,,,a,1,0.5802066000178456,None,,,,,,p005,2026-04-14_13h43.54.417,Flanker Compatibility Task,,2026.1.1,120.99916265899375,2026-04-14 13h43.54.836527 +0800
4,diamond,incong,10,l,1,98,98,0,l,1,0.5371996999601834,None,,,,,0,98,98,187,151.88316650001798,,,,,,,,151.87815689999843,152.3763367999927,152.9188162999926,,,,,,,,,,l,1,0.5371996999601834,None,,,,,,p005,2026-04-14_13h43.54.417,Flanker Compatibility Task,,2026.1.1,120.99916265899375,2026-04-14 13h43.54.836527 +0800
1,diamond,incong,10,l,5,99,99,0,l,1,0.4737561,None,,,,,0,99,99,47,152.92462509998586,,,,,,,,152.9201886000228,153.41894480003975,153.9002957000048,,,,,,,,,,l,1,0.4737561,None,,,,,,p005,2026-04-14_13h43.54.417,Flanker Compatibility Task,,2026.1.1,120.99916265899375,2026-04-14 13h43.54.836527 +0800
4,diamond,incong,-10,l,0,100,100,0,l,1,0.7544463000376709,None,,,,,0,100,100,180,153.9078012999962,,,,,,,,153.90233400004217,154.39669349999167,155.15185210003983,,,,,,,,,,l,1,0.7544463000376709,None,,,,,,p005,2026-04-14_13h43.54.417,Flanker Compatibility Task,,2026.1.1,120.99916265899375,2026-04-14 13h43.54.836527 +0800
4,diamond,incong,-10,l,3,101,101,0,l,1,0.7767249000025913,None,,,,,0,101,101,183,155.1580704,,,,,,,,155.15333330002613,155.65189820004161,156.4332209000131,,,,,,,,,,l,1,0.7767249000025913,None,,,,,,p005,2026-04-14_13h43.54.417,Flanker Compatibility Task,,2026.1.1,120.99916265899375,2026-04-14 13h43.54.836527 +0800
3,diamond,cong,10,l,2,102,102,0,l,1,0.6200887,None,,,,,0,102,102,128,156.44019420002587,,,,,,,,156.4349741000333,156.92890080000507,157.54972340003587,,,,,,,,,,l,1,0.6200887,None,,,,,,p005,2026-04-14_13h43.54.417,Flanker Compatibility Task,,2026.1.1,120.99916265899375,2026-04-14 13h43.54.836527 +0800
4,square,incong,-10,a,3,103,103,0,a,1,0.5605681000160985,None,,,,,0,103,103,159,157.55666460003704,,,,,,,,157.55109990003984,158.04345820000162,158.6070189999882,,,,,,,,,,a,1,0.5605681000160985,None,,,,,,p005,2026-04-14_13h43.54.417,Flanker Compatibility Task,,2026.1.1,120.99916265899375,2026-04-14 13h43.54.836527 +0800
4,square,incong,-10,a,5,104,104,0,a,1,0.4895424999995157,None,,,,,0,104,104,161,158.6144490999868,,,,,,,,158.60801369999535,159.1024652000051,159.59840700001223,,,,,,,,,,a,1,0.4895424999995157,None,,,,,,p005,2026-04-14_13h43.54.417,Flanker Compatibility Task,,2026.1.1,120.99916265899375,2026-04-14 13h43.54.836527 +0800
3,diamond,cong,10,l,5,105,105,0,l,1,0.5153195000020787,None,,,,,0,105,105,131,159.60600180004258,,,,,,,,159.59938140003942,160.0913076000288,160.60722960002022,,,,,,,,,,l,1,0.5153195000020787,None,,,,,,p005,2026-04-14_13h43.54.417,Flanker Compatibility Task,,2026.1.1,120.99916265899375,2026-04-14 13h43.54.836527 +0800
4,diamond,incong,-10,l,1,106,106,0,l,1,0.5891827999730594,None,,,,,0,106,106,181,160.61416460003238,,,,,,,,160.6086254999973,161.10263280000072,161.69782579998719,,,,,,,,,,l,1,0.5891827999730594,None,,,,,,p005,2026-04-14_13h43.54.417,Flanker Compatibility Task,,2026.1.1,120.99916265899375,2026-04-14 13h43.54.836527 +0800
3,square,cong,10,a,2,107,107,0,a,1,0.7618379,None,,,,,0,107,107,104,161.70628139999462,,,,,,,,161.69913250004174,162.1930180999916,162.9560119,,,,,,,,,,a,1,0.7618379,None,,,,,,p005,2026-04-14_13h43.54.417,Flanker Compatibility Task,,2026.1.1,120.99916265899375,2026-04-14 13h43.54.836527 +0800
2,diamond,incong,10,l,1,108,108,0,l,1,0.5958041,None,,,,,0,108,108,91,162.9633884000359,,,,,,,,162.95733689999906,163.4552202,164.05579350003973,,,,,,,,,,l,1,0.5958041,None,,,,,,p005,2026-04-14_13h43.54.417,Flanker Compatibility Task,,2026.1.1,120.99916265899375,2026-04-14 13h43.54.836527 +0800
1,diamond,incong,10,l,0,109,109,0,l,1,0.6735046000103466,None,,,,,0,109,109,42,164.06326960003935,,,,,,,,164.0569457000238,164.55504450004082,165.23161290003918,,,,,,,,,,l,1,0.6735046000103466,None,,,,,,p005,2026-04-14_13h43.54.417,Flanker Compatibility Task,,2026.1.1,120.99916265899375,2026-04-14 13h43.54.836527 +0800
3,square,cong,-10,a,2,110,110,0,a,1,1.1110547999851406,None,,,,,0,110,110,98,165.23800230002962,,,,,,,,165.2330537000089,165.7326102000079,166.84649180003908,,,,,,,,,,a,1,1.1110547999851406,None,,,,,,p005,2026-04-14_13h43.54.417,Flanker Compatibility Task,,2026.1.1,120.99916265899375,2026-04-14 13h43.54.836527 +0800
1,square,incong,-10,a,0,111,111,0,a,1,0.4196127000031993,None,,,,,0,111,111,12,166.85423789999913,,,,,,,,166.84738400002243,167.3395242000115,167.7630548,,,,,,,,,,a,1,0.4196127000031993,None,,,,,,p005,2026-04-14_13h43.54.417,Flanker Compatibility Task,,2026.1.1,120.99916265899375,2026-04-14 13h43.54.836527 +0800
2,square,incong,-10,a,3,112,112,0,a,1,0.6887835999950767,None,,,,,0,112,112,63,167.77071220002836,,,,,,,,167.76389120001113,168.25677600002382,168.94801380002173,,,,,,,,,,a,1,0.6887835999950767,None,,,,,,p005,2026-04-14_13h43.54.417,Flanker Compatibility Task,,2026.1.1,120.99916265899375,2026-04-14 13h43.54.836527 +0800
4,diamond,incong,-10,l,5,113,113,0,l,1,0.6401640999829397,None,,,,,0,113,113,185,168.95517060003476,,,,,,,,168.94956089998595,169.4488590999972,170.0966343000182,,,,,,,,,,l,1,0.6401640999829397,None,,,,,,p005,2026-04-14_13h43.54.417,Flanker Compatibility Task,,2026.1.1,120.99916265899375,2026-04-14 13h43.54.836527 +0800
2,diamond,cong,-10,l,1,114,114,0,l,1,0.5397967000026256,None,,,,,0,114,114,73,170.1038807,,,,,,,,170.09792359999847,170.59834670001874,171.13884130003862,,,,,,,,,,l,1,0.5397967000026256,None,,,,,,p005,2026-04-14_13h43.54.417,Flanker Compatibility Task,,2026.1.1,120.99916265899375,2026-04-14 13h43.54.836527 +0800
2,square,incong,-10,a,1,115,115,0,a,1,0.5988001999794506,None,,,,,0,115,115,61,171.1449588999967,,,,,,,,171.14013350004097,171.63675689999945,172.23736700002337,,,,,,,,,,a,1,0.5988001999794506,None,,,,,,p005,2026-04-14_13h43.54.417,Flanker Compatibility Task,,2026.1.1,120.99916265899375,2026-04-14 13h43.54.836527 +0800
3,diamond,incong,-10,l,5,116,116,0,l,1,0.9907879,None,,,,,0,116,116,137,172.2446374000283,,,,,,,,172.23871140001575,172.7323088000412,173.72949120000703,,,,,,,,,,l,1,0.9907879,None,,,,,,p005,2026-04-14_13h43.54.417,Flanker Compatibility Task,,2026.1.1,120.99916265899375,2026-04-14 13h43.54.836527 +0800
3,square,incong,10,a,1,117,117,0,a,1,0.8530244,None,,,,,0,117,117,115,173.7360818000161,,,,,,,,173.73062789998949,174.22996650001733,175.08649409998907,,,,,,,,,,a,1,0.8530244,None,,,,,,p005,2026-04-14_13h43.54.417,Flanker Compatibility Task,,2026.1.1,120.99916265899375,2026-04-14 13h43.54.836527 +0800
2,diamond,incong,10,l,2,118,118,0,l,1,0.7124521000077948,None,,,,,0,118,118,92,175.09516540000914,,,,,,,,175.08773160004057,175.57960380002623,176.2940024000127,,,,,,,,,,l,1,0.7124521000077948,None,,,,,,p005,2026-04-14_13h43.54.417,Flanker Compatibility Task,,2026.1.1,120.99916265899375,2026-04-14 13h43.54.836527 +0800
2,diamond,cong,-10,l,4,119,119,0,l,1,0.7298515000147745,None,,,,,0,119,119,76,176.30226989998482,,,,,,,,176.29533500003163,176.78541080001742,177.5188438000041,,,,,,,,,,l,1,0.7298515000147745,None,,,,,,p005,2026-04-14_13h43.54.417,Flanker Compatibility Task,,2026.1.1,120.99916265899375,2026-04-14 13h43.54.836527 +0800
2,diamond,cong,10,l,3,120,120,0,l,1,0.6291278999997303,None,,,,,0,120,120,81,177.52649429999292,,,,,,,,177.52025810000487,178.01325499999803,178.64403110003332,,,,,,,,,,l,1,0.6291278999997303,None,,,,,,p005,2026-04-14_13h43.54.417,Flanker Compatibility Task,,2026.1.1,120.99916265899375,2026-04-14 13h43.54.836527 +0800
1,diamond,incong,-10,l,2,121,121,0,l,1,0.5310900000040419,None,,,,,0,121,121,38,178.6515572000062,,,,,,,,178.6451597000123,179.1401668000035,179.67740869999398,,,,,,,,,,l,1,0.5310900000040419,None,,,,,,p005,2026-04-14_13h43.54.417,Flanker Compatibility Task,,2026.1.1,120.99916265899375,2026-04-14 13h43.54.836527 +0800
4,diamond,cong,-10,l,0,122,122,0,l,1,0.5612429000320844,None,,,,,0,122,122,168,179.6847257000045,,,,,,,,179.6790747999912,180.17298219999066,180.73637769999914,,,,,,,,,,l,1,0.5612429000320844,None,,,,,,p005,2026-04-14_13h43.54.417,Flanker Compatibility Task,,2026.1.1,120.99916265899375,2026-04-14 13h43.54.836527 +0800
2,square,incong,-10,a,2,123,123,0,a,1,0.6923102000146173,None,,,,,0,123,123,62,180.7428553000209,,,,,,,,180.73734019999392,181.2364927000017,181.9361047000275,,,,,,,,,,a,1,0.6923102000146173,None,,,,,,p005,2026-04-14_13h43.54.417,Flanker Compatibility Task,,2026.1.1,120.99916265899375,2026-04-14 13h43.54.836527 +0800
3,diamond,incong,10,l,5,124,124,0,l,1,1.1377040999941528,None,,,,,0,124,124,143,181.9429770000279,,,,,,,,181.93756039999425,182.43488130002515,183.5771692999988,,,,,,,,,,l,1,1.1377040999941528,None,,,,,,p005,2026-04-14_13h43.54.417,Flanker Compatibility Task,,2026.1.1,120.99916265899375,2026-04-14 13h43.54.836527 +0800
3,square,cong,10,a,3,125,125,0,a,1,0.7968322000233456,None,,,,,0,125,125,105,183.5835812999867,,,,,,,,183.5786364999949,184.07520349998958,184.87703870004043,,,,,,,,,,a,1,0.7968322000233456,None,,,,,,p005,2026-04-14_13h43.54.417,Flanker Compatibility Task,,2026.1.1,120.99916265899375,2026-04-14 13h43.54.836527 +0800
4,diamond,incong,10,l,4,126,126,0,l,1,1.5558645999990404,None,,,,,0,126,126,190,184.8832567000063,,,,,,,,184.87856300000567,185.37767890002578,186.9417250000406,,,,,,,,,,l,1,1.5558645999990404,None,,,,,,p005,2026-04-14_13h43.54.417,Flanker Compatibility Task,,2026.1.1,120.99916265899375,2026-04-14 13h43.54.836527 +0800
4,diamond,incong,10,l,2,127,127,0,l,1,0.6403595999581739,None,,,,,0,127,127,188,186.94926359999226,,,,,,,,186.94251200003782,187.43543740001041,188.08284360001562,,,,,,,,,,l,1,0.6403595999581739,None,,,,,,p005,2026-04-14_13h43.54.417,Flanker Compatibility Task,,2026.1.1,120.99916265899375,2026-04-14 13h43.54.836527 +0800
2,square,incong,10,a,3,128,128,0,a,1,0.6236535,None,,,,,0,128,128,69,188.09070100000827,,,,,,,,188.08373300003586,188.5738599000033,189.19909060001373,,,,,,,,,,a,1,0.6236535,None,,,,,,p005,2026-04-14_13h43.54.417,Flanker Compatibility Task,,2026.1.1,120.99916265899375,2026-04-14 13h43.54.836527 +0800
1,square,cong,10,a,2,129,129,0,l,0,0.5554591999971308,None,,,,,0,129,129,8,189.20702150004217,,,,,,,,189.1998676,189.6906521000201,190.2491835,,,,,,,,,,l,0,0.5554591999971308,None,,,,,,p005,2026-04-14_13h43.54.417,Flanker Compatibility Task,,2026.1.1,120.99916265899375,2026-04-14 13h43.54.836527 +0800
1,diamond,incong,-10,l,0,130,130,0,l,1,0.8208186999545433,None,,,,,0,130,130,36,190.25688900001114,,,,,,,,190.2501004000078,190.7502176000271,191.57354930002475,,,,,,,,,,l,1,0.8208186999545433,None,,,,,,p005,2026-04-14_13h43.54.417,Flanker Compatibility Task,,2026.1.1,120.99916265899375,2026-04-14 13h43.54.836527 +0800
3,diamond,incong,-10,l,1,131,131,0,l,1,0.9007437999825925,None,,,,,0,131,131,133,191.58193520002533,,,,,,,,191.5744093999965,192.06498900003498,192.9735731999972,,,,,,,,,,l,1,0.9007437999825925,None,,,,,,p005,2026-04-14_13h43.54.417,Flanker Compatibility Task,,2026.1.1,120.99916265899375,2026-04-14 13h43.54.836527 +0800
1,diamond,cong,-10,l,1,132,132,0,l,1,0.5444270999869332,None,,,,,0,132,132,25,192.9811427000095,,,,,,,,192.97444090002682,193.46426660002908,194.01501219999045,,,,,,,,,,l,1,0.5444270999869332,None,,,,,,p005,2026-04-14_13h43.54.417,Flanker Compatibility Task,,2026.1.1,120.99916265899375,2026-04-14 13h43.54.836527 +0800
1,diamond,cong,-10,l,2,133,133,0,l,1,0.4784051000024192,None,,,,,0,133,133,26,194.02261440001894,,,,,,,,194.01615420001326,194.5071103000082,194.98966790002305,,,,,,,,,,l,1,0.4784051000024192,None,,,,,,p005,2026-04-14_13h43.54.417,Flanker Compatibility Task,,2026.1.1,120.99916265899375,2026-04-14 13h43.54.836527 +0800
2,square,incong,-10,a,0,134,134,0,a,1,0.5820176000124775,None,,,,,0,134,134,60,194.9979570999858,,,,,,,,194.99126270000124,195.48325520002982,196.07262980000814,,,,,,,,,,a,1,0.5820176000124775,None,,,,,,p005,2026-04-14_13h43.54.417,Flanker Compatibility Task,,2026.1.1,120.99916265899375,2026-04-14 13h43.54.836527 +0800
2,diamond,incong,10,l,3,135,135,0,l,1,0.7919449000037275,None,,,,,0,135,135,93,196.0806264,,,,,,,,196.07351479999488,196.5683586000232,197.36561530001927,,,,,,,,,,l,1,0.7919449000037275,None,,,,,,p005,2026-04-14_13h43.54.417,Flanker Compatibility Task,,2026.1.1,120.99916265899375,2026-04-14 13h43.54.836527 +0800
3,square,incong,10,a,2,136,136,0,a,1,0.6803629000205547,None,,,,,0,136,136,116,197.37165510002524,,,,,,,,197.36707820004085,197.86779089999618,198.55553320003673,,,,,,,,,,a,1,0.6803629000205547,None,,,,,,p005,2026-04-14_13h43.54.417,Flanker Compatibility Task,,2026.1.1,120.99916265899375,2026-04-14 13h43.54.836527 +0800
4,diamond,cong,10,l,1,137,137,0,l,1,0.7106001,None,,,,,0,137,137,175,198.56421470001806,,,,,,,,198.55697510001482,199.05103390000295,199.76350350002758,,,,,,,,,,l,1,0.7106001,None,,,,,,p005,2026-04-14_13h43.54.417,Flanker Compatibility Task,,2026.1.1,120.99916265899375,2026-04-14 13h43.54.836527 +0800
4,square,cong,10,a,1,138,138,0,a,1,0.6162131000310183,None,,,,,0,138,138,151,199.77116810000734,,,,,,,,199.7646791000152,200.26603729999624,200.88912589999381,,,,,,,,,,a,1,0.6162131000310183,None,,,,,,p005,2026-04-14_13h43.54.417,Flanker Compatibility Task,,2026.1.1,120.99916265899375,2026-04-14 13h43.54.836527 +0800
1,square,cong,10,a,1,139,139,0,a,1,0.5246120000374503,None,,,,,0,139,139,7,200.89710410003318,,,,,,,,200.8903914000257,201.38438460003817,201.91304370004218,,,,,,,,,,a,1,0.5246120000374503,None,,,,,,p005,2026-04-14_13h43.54.417,Flanker Compatibility Task,,2026.1.1,120.99916265899375,2026-04-14 13h43.54.836527 +0800
4,diamond,cong,10,l,0,140,140,0,l,1,0.6971143999835476,None,,,,,0,140,140,174,201.92085659998702,,,,,,,,201.91407900000922,202.40424110001186,203.1047293000156,,,,,,,,,,l,1,0.6971143999835476,None,,,,,,p005,2026-04-14_13h43.54.417,Flanker Compatibility Task,,2026.1.1,120.99916265899375,2026-04-14 13h43.54.836527 +0800
3,diamond,cong,-10,l,3,141,141,0,l,1,0.7696140999905765,None,,,,,0,141,141,123,203.11200840002857,,,,,,,,203.10605980001856,203.60697210003855,204.37880760000553,,,,,,,,,,l,1,0.7696140999905765,None,,,,,,p005,2026-04-14_13h43.54.417,Flanker Compatibility Task,,2026.1.1,120.99916265899375,2026-04-14 13h43.54.836527 +0800
1,diamond,incong,-10,l,5,142,142,0,l,1,0.5584335000021383,None,,,,,0,142,142,41,204.3864137000055,,,,,,,,204.37999300000956,204.8746505000163,205.43736740003806,,,,,,,,,,l,1,0.5584335000021383,None,,,,,,p005,2026-04-14_13h43.54.417,Flanker Compatibility Task,,2026.1.1,120.99916265899375,2026-04-14 13h43.54.836527 +0800
2,diamond,incong,-10,l,3,143,143,0,l,1,0.6121765999705531,None,,,,,0,143,143,87,205.44504510000115,,,,,,,,205.43842870002845,205.93311919999542,206.54703190003056,,,,,,,,,,l,1,0.6121765999705531,None,,,,,,p005,2026-04-14_13h43.54.417,Flanker Compatibility Task,,2026.1.1,120.99916265899375,2026-04-14 13h43.54.836527 +0800
4,square,incong,-10,a,4,144,144,0,a,1,0.8231967000174336,None,,,,,0,144,144,160,206.55502580001485,,,,,,,,206.54861450003227,207.04680120002013,207.8796316999942,,,,,,,,,,a,1,0.8231967000174336,None,,,,,,p005,2026-04-14_13h43.54.417,Flanker Compatibility Task,,2026.1.1,120.99916265899375,2026-04-14 13h43.54.836527 +0800
4,square,cong,-10,a,2,145,145,0,a,1,0.6026000000420026,None,,,,,0,145,145,146,207.8867666000151,,,,,,,,207.88104529998964,208.38179509999463,208.98679789999733,,,,,,,,,,a,1,0.6026000000420026,None,,,,,,p005,2026-04-14_13h43.54.417,Flanker Compatibility Task,,2026.1.1,120.99916265899375,2026-04-14 13h43.54.836527 +0800
1,diamond,cong,10,l,2,146,146,0,l,1,0.5194286000332795,None,,,,,0,146,146,32,208.99429480003892,,,,,,,,208.98795929999324,209.4883819000097,210.01098170003388,,,,,,,,,,l,1,0.5194286000332795,None,,,,,,p005,2026-04-14_13h43.54.417,Flanker Compatibility Task,,2026.1.1,120.99916265899375,2026-04-14 13h43.54.836527 +0800
1,square,incong,-10,a,5,147,147,0,a,1,0.5890740000177175,None,,,,,0,147,147,17,210.01862590003293,,,,,,,,210.01213719998486,210.5039206999936,211.09438349999255,,,,,,,,,,a,1,0.5890740000177175,None,,,,,,p005,2026-04-14_13h43.54.417,Flanker Compatibility Task,,2026.1.1,120.99916265899375,2026-04-14 13h43.54.836527 +0800
1,diamond,cong,10,l,5,148,148,0,a,0,0.45088209997629747,None,,,,,0,148,148,35,211.10163620003732,,,,,,,,211.09537960001035,211.58909830002813,212.0456889999914,,,,,,,,,,a,0,0.45088209997629747,None,,,,,,p005,2026-04-14_13h43.54.417,Flanker Compatibility Task,,2026.1.1,120.99916265899375,2026-04-14 13h43.54.836527 +0800
2,diamond,cong,10,l,1,149,149,0,l,1,0.7132498999708332,None,,,,,0,149,149,79,212.05156870000064,,,,,,,,212.04681800003164,212.54766660003224,213.26844080002047,,,,,,,,,,l,1,0.7132498999708332,None,,,,,,p005,2026-04-14_13h43.54.417,Flanker Compatibility Task,,2026.1.1,120.99916265899375,2026-04-14 13h43.54.836527 +0800
1,diamond,incong,10,l,3,150,150,0,l,1,0.5158229,None,,,,,0,150,150,45,213.2760602000053,,,,,,,,213.26961100002518,213.76148350001313,214.28458640002646,,,,,,,,,,l,1,0.5158229,None,,,,,,p005,2026-04-14_13h43.54.417,Flanker Compatibility Task,,2026.1.1,120.99916265899375,2026-04-14 13h43.54.836527 +0800
2,square,incong,10,a,5,151,151,0,a,1,0.5293131999787875,None,,,,,0,151,151,71,214.29235780000454,,,,,,,,214.2857978999964,214.77844560000813,215.3096721000038,,,,,,,,,,a,1,0.5293131999787875,None,,,,,,p005,2026-04-14_13h43.54.417,Flanker Compatibility Task,,2026.1.1,120.99916265899375,2026-04-14 13h43.54.836527 +0800
2,diamond,cong,10,l,4,152,152,0,l,1,0.7165380999795161,None,,,,,0,152,152,82,215.31731380004203,,,,,,,,215.31102080002893,215.80310600000666,216.5266258000047,,,,,,,,,,l,1,0.7165380999795161,None,,,,,,p005,2026-04-14_13h43.54.417,Flanker Compatibility Task,,2026.1.1,120.99916265899375,2026-04-14 13h43.54.836527 +0800
4,square,incong,10,a,1,153,153,0,a,1,1.042132499977015,None,,,,,0,153,153,163,216.53372870001476,,,,,,,,216.52774829999544,217.02923700003885,218.07552589999977,,,,,,,,,,a,1,1.042132499977015,None,,,,,,p005,2026-04-14_13h43.54.417,Flanker Compatibility Task,,2026.1.1,120.99916265899375,2026-04-14 13h43.54.836527 +0800
2,square,cong,10,a,2,154,154,0,a,1,0.7072496999753639,None,,,,,0,154,154,56,218.0832064000424,,,,,,,,218.07640900003025,218.56865359999938,219.28387700003805,,,,,,,,,,a,1,0.7072496999753639,None,,,,,,p005,2026-04-14_13h43.54.417,Flanker Compatibility Task,,2026.1.1,120.99916265899375,2026-04-14 13h43.54.836527 +0800
4,diamond,cong,-10,l,1,155,155,0,l,1,0.9804810000350699,None,,,,,0,155,155,169,219.29129289998673,,,,,,,,219.28497139998944,219.77912570000626,220.76715189998504,,,,,,,,,,l,1,0.9804810000350699,None,,,,,,p005,2026-04-14_13h43.54.417,Flanker Compatibility Task,,2026.1.1,120.99916265899375,2026-04-14 13h43.54.836527 +0800
1,square,cong,10,a,0,156,156,0,a,1,0.6217552999733016,None,,,,,0,156,156,6,220.77416630001971,,,,,,,,220.76817870000377,221.26662090001628,221.89147410000442,,,,,,,,,,a,1,0.6217552999733016,None,,,,,,p005,2026-04-14_13h43.54.417,Flanker Compatibility Task,,2026.1.1,120.99916265899375,2026-04-14 13h43.54.836527 +0800
1,square,incong,10,a,5,157,157,0,a,1,0.4630269,None,,,,,0,157,157,23,221.89907829998992,,,,,,,,221.89264239999466,222.38552770001115,222.8513038000092,,,,,,,,,,a,1,0.4630269,None,,,,,,p005,2026-04-14_13h43.54.417,Flanker Compatibility Task,,2026.1.1,120.99916265899375,2026-04-14 13h43.54.836527 +0800
1,diamond,cong,-10,l,5,158,158,0,l,1,0.5350355000118725,None,,,,,0,158,158,29,222.8580410000286,,,,,,,,222.85257680003997,223.35320300003514,223.89182610000717,,,,,,,,,,l,1,0.5350355000118725,None,,,,,,p005,2026-04-14_13h43.54.417,Flanker Compatibility Task,,2026.1.1,120.99916265899375,2026-04-14 13h43.54.836527 +0800
2,square,cong,-10,a,0,159,159,0,a,1,0.5265644,None,,,,,0,159,159,48,223.89898669999093,,,,,,,,223.89274919999298,224.39272569998866,224.9258722999948,,,,,,,,,,a,1,0.5265644,None,,,,,,p005,2026-04-14_13h43.54.417,Flanker Compatibility Task,,2026.1.1,120.99916265899375,2026-04-14 13h43.54.836527 +0800
4,diamond,incong,10,l,5,160,160,0,l,1,0.7676250000367872,None,,,,,0,160,160,191,224.9334233000409,,,,,,,,224.9274182000081,225.42753039998934,226.1996731000254,,,,,,,,,,l,1,0.7676250000367872,None,,,,,,p005,2026-04-14_13h43.54.417,Flanker Compatibility Task,,2026.1.1,120.99916265899375,2026-04-14 13h43.54.836527 +0800
3,square,incong,-10,a,2,161,161,0,a,1,0.7356188999838196,None,,,,,0,161,161,110,226.2070834999904,,,,,,,,226.2012839,226.69477140001254,227.43257430003723,,,,,,,,,,a,1,0.7356188999838196,None,,,,,,p005,2026-04-14_13h43.54.417,Flanker Compatibility Task,,2026.1.1,120.99916265899375,2026-04-14 13h43.54.836527 +0800
3,diamond,incong,-10,l,4,162,162,0,l,1,0.8786771000013687,None,,,,,0,162,162,136,227.4397719000117,,,,,,,,227.43395840004086,227.93213289999403,228.8160945000127,,,,,,,,,,l,1,0.8786771000013687,None,,,,,,p005,2026-04-14_13h43.54.417,Flanker Compatibility Task,,2026.1.1,120.99916265899375,2026-04-14 13h43.54.836527 +0800
2,diamond,incong,-10,l,1,163,163,0,l,1,0.5346263999817893,None,,,,,0,163,163,85,228.82291859999532,,,,,,,,228.81737689999864,229.31670309999026,229.8570615000208,,,,,,,,,,l,1,0.5346263999817893,None,,,,,,p005,2026-04-14_13h43.54.417,Flanker Compatibility Task,,2026.1.1,120.99916265899375,2026-04-14 13h43.54.836527 +0800
2,diamond,cong,10,l,2,164,164,0,l,1,0.5895016999565996,None,,,,,0,164,164,80,229.86457780003548,,,,,,,,229.85861779999686,230.3518639000249,230.94840850000037,,,,,,,,,,l,1,0.5895016999565996,None,,,,,,p005,2026-04-14_13h43.54.417,Flanker Compatibility Task,,2026.1.1,120.99916265899375,2026-04-14 13h43.54.836527 +0800
1,diamond,cong,10,l,4,165,165,0,l,1,0.43909529998200014,None,,,,,0,165,165,34,230.95591359998798,,,,,,,,230.9495882000192,231.44128470000578,231.88129470002605,,,,,,,,,,l,1,0.43909529998200014,None,,,,,,p005,2026-04-14_13h43.54.417,Flanker Compatibility Task,,2026.1.1,120.99916265899375,2026-04-14 13h43.54.836527 +0800
2,diamond,cong,10,l,0,166,166,0,l,1,0.4699112999951467,None,,,,,0,166,166,78,231.88884610001696,,,,,,,,231.8826252,232.37454210000578,232.84735530003672,,,,,,,,,,l,1,0.4699112999951467,None,,,,,,p005,2026-04-14_13h43.54.417,Flanker Compatibility Task,,2026.1.1,120.99916265899375,2026-04-14 13h43.54.836527 +0800
2,square,incong,10,a,0,167,167,0,a,1,0.4768099999637343,None,,,,,0,167,167,66,232.8548097999883,,,,,,,,232.84848169999896,233.34119489998557,233.8227598000085,,,,,,,,,,a,1,0.4768099999637343,None,,,,,,p005,2026-04-14_13h43.54.417,Flanker Compatibility Task,,2026.1.1,120.99916265899375,2026-04-14 13h43.54.836527 +0800
1,square,cong,-10,a,0,168,168,0,l,0,0.44313319999491796,None,,,,,0,168,168,0,233.83051739999792,,,,,,,,233.82391520001693,234.32402609998826,234.77228989999276,,,,,,,,,,l,0,0.44313319999491796,None,,,,,,p005,2026-04-14_13h43.54.417,Flanker Compatibility Task,,2026.1.1,120.99916265899375,2026-04-14 13h43.54.836527 +0800
3,diamond,incong,10,l,1,169,169,0,l,1,0.6859282000223175,None,,,,,0,169,169,139,234.7798652999918,,,,,,,,234.77357510000002,235.26832650002325,235.96278729999904,,,,,,,,,,l,1,0.6859282000223175,None,,,,,,p005,2026-04-14_13h43.54.417,Flanker Compatibility Task,,2026.1.1,120.99916265899375,2026-04-14 13h43.54.836527 +0800
3,square,incong,10,a,5,170,170,0,a,1,0.9109120999928564,None,,,,,0,170,170,119,235.97054080001544,,,,,,,,235.96418800001265,236.4579020999954,237.37100490002194,,,,,,,,,,a,1,0.9109120999928564,None,,,,,,p005,2026-04-14_13h43.54.417,Flanker Compatibility Task,,2026.1.1,120.99916265899375,2026-04-14 13h43.54.836527 +0800
1,diamond,incong,10,l,4,171,171,0,l,1,0.5454586999840103,None,,,,,0,171,171,46,237.37866859999485,,,,,,,,237.3721485999995,237.86624200001825,238.41554330004146,,,,,,,,,,l,1,0.5454586999840103,None,,,,,,p005,2026-04-14_13h43.54.417,Flanker Compatibility Task,,2026.1.1,120.99916265899375,2026-04-14 13h43.54.836527 +0800
2,diamond,cong,-10,l,2,172,172,0,l,1,0.9554394999868236,None,,,,,0,172,172,74,238.42178330000024,,,,,,,,238.41688999999315,238.91448600002332,239.87098960002186,,,,,,,,,,l,1,0.9554394999868236,None,,,,,,p005,2026-04-14_13h43.54.417,Flanker Compatibility Task,,2026.1.1,120.99916265899375,2026-04-14 13h43.54.836527 +0800
1,square,cong,10,a,4,173,173,0,a,1,0.5342152999946848,None,,,,,0,173,173,10,239.8787452999968,,,,,,,,239.87202589999652,240.36448829999426,240.90340930002276,,,,,,,,,,a,1,0.5342152999946848,None,,,,,,p005,2026-04-14_13h43.54.417,Flanker Compatibility Task,,2026.1.1,120.99916265899375,2026-04-14 13h43.54.836527 +0800
1,square,cong,-10,a,4,174,174,0,a,1,0.4667112000170164,None,,,,,0,174,174,4,240.91224249999505,,,,,,,,240.9045843000058,241.39627110003494,241.87061520002317,,,,,,,,,,a,1,0.4667112000170164,None,,,,,,p005,2026-04-14_13h43.54.417,Flanker Compatibility Task,,2026.1.1,120.99916265899375,2026-04-14 13h43.54.836527 +0800
2,diamond,cong,-10,l,3,175,175,0,l,1,0.5556195999961346,None,,,,,0,175,175,75,241.87867190001998,,,,,,,,241.87185270001646,242.365557,242.92186900001252,,,,,,,,,,l,1,0.5556195999961346,None,,,,,,p005,2026-04-14_13h43.54.417,Flanker Compatibility Task,,2026.1.1,120.99916265899375,2026-04-14 13h43.54.836527 +0800
1,square,incong,10,a,2,176,176,0,a,1,0.6167405999731272,None,,,,,0,176,176,20,242.92831970000407,,,,,,,,242.92315119999694,243.42394850001438,244.04443150002044,,,,,,,,,,a,1,0.6167405999731272,None,,,,,,p005,2026-04-14_13h43.54.417,Flanker Compatibility Task,,2026.1.1,120.99916265899375,2026-04-14 13h43.54.836527 +0800
3,diamond,cong,10,l,0,177,177,0,l,1,0.6658647999865934,None,,,,,0,177,177,126,244.05197690002387,,,,,,,,244.04585420002695,244.53839510004036,245.21167440002318,,,,,,,,,,l,1,0.6658647999865934,None,,,,,,p005,2026-04-14_13h43.54.417,Flanker Compatibility Task,,2026.1.1,120.99916265899375,2026-04-14 13h43.54.836527 +0800
1,square,cong,-10,a,3,178,178,0,a,1,0.5695616000448354,None,,,,,0,178,178,3,245.21917910000775,,,,,,,,245.2129124000203,245.70575640001334,246.27839679998579,,,,,,,,,,a,1,0.5695616000448354,None,,,,,,p005,2026-04-14_13h43.54.417,Flanker Compatibility Task,,2026.1.1,120.99916265899375,2026-04-14 13h43.54.836527 +0800
4,diamond,incong,-10,l,4,179,179,0,l,1,1.4081150999991223,None,,,,,0,179,179,184,246.28548890003003,,,,,,,,246.2799180999864,246.77791639999487,248.18663569999626,,,,,,,,,,l,1,1.4081150999991223,None,,,,,,p005,2026-04-14_13h43.54.417,Flanker Compatibility Task,,2026.1.1,120.99916265899375,2026-04-14 13h43.54.836527 +0800
4,diamond,incong,10,l,0,180,180,0,l,1,0.6310729,None,,,,,0,180,180,186,248.19287309999345,,,,,,,,248.18778010003734,248.68713360000402,249.32631690002745,,,,,,,,,,l,1,0.6310729,None,,,,,,p005,2026-04-14_13h43.54.417,Flanker Compatibility Task,,2026.1.1,120.99916265899375,2026-04-14 13h43.54.836527 +0800
3,square,cong,-10,a,5,181,181,0,a,1,0.9667344,None,,,,,0,181,181,101,249.3340232000337,,,,,,,,249.32785320002586,249.8201873000362,250.79232460004278,,,,,,,,,,a,1,0.9667344,None,,,,,,p005,2026-04-14_13h43.54.417,Flanker Compatibility Task,,2026.1.1,120.99916265899375,2026-04-14 13h43.54.836527 +0800
3,square,incong,10,a,0,182,182,0,a,1,0.6206517000100575,None,,,,,0,182,182,114,250.80006470001535,,,,,,,,250.79363700002432,251.28854979999596,251.91030829999363,,,,,,,,,,a,1,0.6206517000100575,None,,,,,,p005,2026-04-14_13h43.54.417,Flanker Compatibility Task,,2026.1.1,120.99916265899375,2026-04-14 13h43.54.836527 +0800
2,diamond,incong,-10,l,5,183,183,0,l,1,0.5334610000136308,None,,,,,0,183,183,89,251.91750209999736,,,,,,,,251.91183500003535,252.40323130000615,252.94210139999632,,,,,,,,,,l,1,0.5334610000136308,None,,,,,,p005,2026-04-14_13h43.54.417,Flanker Compatibility Task,,2026.1.1,120.99916265899375,2026-04-14 13h43.54.836527 +0800
4,diamond,cong,-10,l,2,184,184,0,l,1,1.236724799964577,None,,,,,0,184,184,170,252.95039630000247,,,,,,,,252.94349850004073,253.43603670003358,254.67510900000343,,,,,,,,,,l,1,1.236724799964577,None,,,,,,p005,2026-04-14_13h43.54.417,Flanker Compatibility Task,,2026.1.1,120.99916265899375,2026-04-14 13h43.54.836527 +0800
4,square,cong,-10,a,4,185,185,0,a,1,1.3754646999877878,None,,,,,0,185,185,148,254.68259580002632,,,,,,,,254.6764899000409,255.17120889999205,256.5493301000097,,,,,,,,,,a,1,1.3754646999877878,None,,,,,,p005,2026-04-14_13h43.54.417,Flanker Compatibility Task,,2026.1.1,120.99916265899375,2026-04-14 13h43.54.836527 +0800
4,diamond,cong,-10,l,5,186,186,0,l,1,0.7867949999636039,None,,,,,0,186,186,173,256.55683150002733,,,,,,,,256.5507129000034,257.0451452000416,257.8336891999934,,,,,,,,,,l,1,0.7867949999636039,None,,,,,,p005,2026-04-14_13h43.54.417,Flanker Compatibility Task,,2026.1.1,120.99916265899375,2026-04-14 13h43.54.836527 +0800
2,square,cong,10,a,3,187,187,0,a,1,0.7712653999915347,None,,,,,0,187,187,57,257.8402887,,,,,,,,257.8350325000356,258.3360074000084,259.1082628000295,,,,,,,,,,a,1,0.7712653999915347,None,,,,,,p005,2026-04-14_13h43.54.417,Flanker Compatibility Task,,2026.1.1,120.99916265899375,2026-04-14 13h43.54.836527 +0800
1,diamond,incong,10,l,2,188,188,0,l,1,0.6430160000454634,None,,,,,0,188,188,44,259.1146851000376,,,,,,,,259.10939090000466,259.6116864000214,260.2567926000338,,,,,,,,,,l,1,0.6430160000454634,None,,,,,,p005,2026-04-14_13h43.54.417,Flanker Compatibility Task,,2026.1.1,120.99916265899375,2026-04-14 13h43.54.836527 +0800
4,diamond,cong,-10,l,4,189,189,0,a,0,0.8903743000118993,None,,,,,0,189,189,172,260.2647996000014,,,,,,,,260.25805270002456,260.75300680001965,261.6484116000356,,,,,,,,,,a,0,0.8903743000118993,None,,,,,,p005,2026-04-14_13h43.54.417,Flanker Compatibility Task,,2026.1.1,120.99916265899375,2026-04-14 13h43.54.836527 +0800
1,square,incong,-10,a,1,190,190,0,a,1,0.5534492000006139,None,,,,,0,190,190,13,261.6557841000031,,,,,,,,261.64955840003677,262.14178970002104,262.69871960004093,,,,,,,,,,a,1,0.5534492000006139,None,,,,,,p005,2026-04-14_13h43.54.417,Flanker Compatibility Task,,2026.1.1,120.99916265899375,2026-04-14 13h43.54.836527 +0800
3,diamond,cong,-10,l,0,191,191,0,l,1,0.6998752999934368,None,,,,,0,191,191,120,262.70573340001283,,,,,,,,262.7001436999999,263.1989833000116,263.8999528000131,,,,,,,,,,l,1,0.6998752999934368,None,,,,,,p005,2026-04-14_13h43.54.417,Flanker Compatibility Task,,2026.1.1,120.99916265899375,2026-04-14 13h43.54.836527 +0800
,,,,,,,,,,,,,,,,,,,,,,,,,,,,,,,,,,,,,,,,,,,,,263.9001881000004,270.7957976000034,space,6.882853300019633,None,p005,2026-04-14_13h43.54.417,Flanker Compatibility Task,,2026.1.1,120.99916265899375,2026-04-14 13h43.54.836527 +0800
