difficulty,target_type,compatibility,dist_pos_x,ans,target_idx,thisN,thisTrialN,thisRepN,Anskey.keys,Anskey.corr,Anskey.rt,Anskey.duration,Prac_Loop.thisRepN,Prac_Loop.thisTrialN,Prac_Loop.thisN,Prac_Loop.thisIndex,Trials_Loop.thisRepN,Trials_Loop.thisTrialN,Trials_Loop.thisN,Trials_Loop.thisIndex,thisRow.t,notes,piloting,Intro.started,Intro.stopped,Intro_keyresp.keys,Intro_keyresp.rt,Intro_keyresp.duration,Trial_Routine.started,Anskey.started,Trial_Routine.stopped,Prac_Loop.Anskey.keys,Prac_Loop.Anskey.corr,Prac_Loop.Anskey.rt,Prac_Loop.Anskey.duration,Ready.started,Ready.stopped,Ready_keyresp.keys,Ready_keyresp.rt,Ready_keyresp.duration,Trials_Loop.Anskey.keys,Trials_Loop.Anskey.corr,Trials_Loop.Anskey.rt,Trials_Loop.Anskey.duration,ThankYou.started,ThankYou.stopped,Thanks_keyresp.keys,participant,date,expName,expVersion,psychopyVersion,frameRate,expStart
,,,,,,,,,,,,,,,,,,,,,,,FALSE,0.00805,1.7682007999974303,space,1.2644483000040054,None,,,,,,,,,,,,,,,,,,,,p006,2026-04-14_14h15.40.871,Flanker Compatibility Task,,2026.1.1,119.70456918697413,2026-04-14 14h15.41.175104 +0800
2,square,incong,-10,a,2,0,0,0,a,1,1.828161099983845,None,0,0,0,5,,,,,1.7944667999981903,,,,,,,,1.784074299968779,2.263639400014654,4.099737100012135,a,1,1.828161099983845,None,,,,,,,,,,,,,p006,2026-04-14_14h15.40.871,Flanker Compatibility Task,,2026.1.1,119.70456918697413,2026-04-14 14h15.41.175104 +0800
2,square,cong,10,a,5,1,1,0,a,1,1.1686559000518173,None,0,1,1,4,,,,,4.107752899988554,,,,,,,,4.100921200006269,4.597685599990655,5.767227499978617,a,1,1.1686559000518173,None,,,,,,,,,,,,,p006,2026-04-14_14h15.40.871,Flanker Compatibility Task,,2026.1.1,119.70456918697413,2026-04-14 14h15.41.175104 +0800
3,square,cong,-10,a,1,2,2,0,a,1,0.8932748999795876,None,0,2,2,8,,,,,5.7744153999956325,,,,,,,,5.768468099995516,6.260765000013635,7.158581600000616,a,1,0.8932748999795876,None,,,,,,,,,,,,,p006,2026-04-14_14h15.40.871,Flanker Compatibility Task,,2026.1.1,119.70456918697413,2026-04-14 14h15.41.175104 +0800
4,square,incong,-10,a,1,3,3,0,a,1,1.3127336999750696,None,0,3,3,13,,,,,7.166038999974262,,,,,,,,7.160029599966947,7.653956399997696,8.974181399971712,a,1,1.3127336999750696,None,,,,,,,,,,,,,p006,2026-04-14_14h15.40.871,Flanker Compatibility Task,,2026.1.1,119.70456918697413,2026-04-14 14h15.41.175104 +0800
3,diamond,incong,-10,l,4,4,4,0,l,1,0.8389753000228666,None,0,4,4,11,,,,,8.981940699974075,,,,,,,,8.9757185,9.470728799991775,10.318279600003734,l,1,0.8389753000228666,None,,,,,,,,,,,,,p006,2026-04-14_14h15.40.871,Flanker Compatibility Task,,2026.1.1,119.70456918697413,2026-04-14 14h15.41.175104 +0800
2,diamond,cong,-10,l,3,5,5,0,l,1,0.7581227000337094,None,0,5,5,6,,,,,10.323521799989976,,,,,,,,10.319490599969868,10.816260399995372,11.58123519999208,l,1,0.7581227000337094,None,,,,,,,,,,,,,p006,2026-04-14_14h15.40.871,Flanker Compatibility Task,,2026.1.1,119.70456918697413,2026-04-14 14h15.41.175104 +0800
4,square,cong,10,a,5,6,6,0,a,1,1.002717500028666,None,0,6,6,12,,,,,11.588970599987078,,,,,,,,11.582742500002496,12.077659300004598,13.08182919997489,a,1,1.002717500028666,None,,,,,,,,,,,,,p006,2026-04-14_14h15.40.871,Flanker Compatibility Task,,2026.1.1,119.70456918697413,2026-04-14 14h15.41.175104 +0800
1,diamond,incong,-10,l,5,7,7,0,l,1,0.9498114,None,0,7,7,3,,,,,13.089226300013252,,,,,,,,13.083076699986123,13.582912300014868,14.53956239996478,l,1,0.9498114,None,,,,,,,,,,,,,p006,2026-04-14_14h15.40.871,Flanker Compatibility Task,,2026.1.1,119.70456918697413,2026-04-14 14h15.41.175104 +0800
1,square,cong,-10,a,1,8,8,0,a,1,0.7329730999772437,None,0,8,8,0,,,,,14.547230099968147,,,,,,,,14.540751499996986,15.04043749999255,15.774376499990467,a,1,0.7329730999772437,None,,,,,,,,,,,,,p006,2026-04-14_14h15.40.871,Flanker Compatibility Task,,2026.1.1,119.70456918697413,2026-04-14 14h15.41.175104 +0800
3,diamond,cong,10,l,1,9,9,0,l,1,0.9723881999962032,None,0,9,9,10,,,,,15.781937499996275,,,,,,,,15.775909000018146,16.27686400001403,17.25498680002056,l,1,0.9723881999962032,None,,,,,,,,,,,,,p006,2026-04-14_14h15.40.871,Flanker Compatibility Task,,2026.1.1,119.70456918697413,2026-04-14 14h15.41.175104 +0800
1,square,incong,10,a,3,10,10,0,a,1,0.6584952999837697,None,0,10,10,1,,,,,17.26245259999996,,,,,,,,17.255894600006286,17.75133379996987,18.414435999991838,a,1,0.6584952999837697,None,,,,,,,,,,,,,p006,2026-04-14_14h15.40.871,Flanker Compatibility Task,,2026.1.1,119.70456918697413,2026-04-14 14h15.41.175104 +0800
3,square,incong,10,a,5,11,11,0,a,1,1.0063147000037134,None,0,11,11,9,,,,,18.421971999981906,,,,,,,,18.415881900000386,18.914953899977263,19.922115099965595,a,1,1.0063147000037134,None,,,,,,,,,,,,,p006,2026-04-14_14h15.40.871,Flanker Compatibility Task,,2026.1.1,119.70456918697413,2026-04-14 14h15.41.175104 +0800
4,diamond,cong,-10,l,4,12,12,0,l,1,2.357332099985797,None,0,12,12,14,,,,,19.929226199979894,,,,,,,,19.923667399969418,20.424098399991635,22.783828100014944,l,1,2.357332099985797,None,,,,,,,,,,,,,p006,2026-04-14_14h15.40.871,Flanker Compatibility Task,,2026.1.1,119.70456918697413,2026-04-14 14h15.41.175104 +0800
2,diamond,incong,10,l,0,13,13,0,a,0,1.1653022000100464,None,0,13,13,7,,,,,22.790857299987692,,,,,,,,22.785196000011638,23.28496819996508,24.457203799975105,a,0,1.1653022000100464,None,,,,,,,,,,,,,p006,2026-04-14_14h15.40.871,Flanker Compatibility Task,,2026.1.1,119.70456918697413,2026-04-14 14h15.41.175104 +0800
1,diamond,cong,10,l,0,14,14,0,l,1,0.8415502000134438,None,0,14,14,2,,,,,24.46578149998095,,,,,,,,24.458294600015506,24.951928599970415,25.79894189996412,l,1,0.8415502000134438,None,,,,,,,,,,,,,p006,2026-04-14_14h15.40.871,Flanker Compatibility Task,,2026.1.1,119.70456918697413,2026-04-14 14h15.41.175104 +0800
4,diamond,incong,10,l,2,15,15,0,l,1,1.2223272999981418,None,0,15,15,15,,,,,25.806894499983173,,,,,,,,25.800396,26.300651199999265,27.5236882,l,1,1.2223272999981418,None,,,,,,,,,,,,,p006,2026-04-14_14h15.40.871,Flanker Compatibility Task,,2026.1.1,119.70456918697413,2026-04-14 14h15.41.175104 +0800
,,,,,,,,,,,,,,,,,,,,,,,,,,,,,,,,,,,,27.52389359998051,36.87926309998147,space,8.858538400032558,None,,,,,,,,p006,2026-04-14_14h15.40.871,Flanker Compatibility Task,,2026.1.1,119.70456918697413,2026-04-14 14h15.41.175104 +0800
2,diamond,cong,-10,l,5,0,0,0,l,1,0.6448180000297725,None,,,,,0,0,0,77,36.93101639999077,,,,,,,,36.9270177,37.377976699965075,38.02540119999321,,,,,,,,,,l,1,0.6448180000297725,None,,,,p006,2026-04-14_14h15.40.871,Flanker Compatibility Task,,2026.1.1,119.70456918697413,2026-04-14 14h15.41.175104 +0800
4,square,cong,10,a,3,1,1,0,a,1,0.9946970999590121,None,,,,,0,1,1,153,38.033139600011054,,,,,,,,38.02690529997926,38.520258700009435,39.518012000015005,,,,,,,,,,a,1,0.9946970999590121,None,,,,p006,2026-04-14_14h15.40.871,Flanker Compatibility Task,,2026.1.1,119.70456918697413,2026-04-14 14h15.41.175104 +0800
2,square,cong,-10,a,0,2,2,0,a,1,0.7132532999967225,None,,,,,0,2,2,48,39.52463529998204,,,,,,,,39.519200499984436,40.012628500000574,40.73302230000263,,,,,,,,,,a,1,0.7132532999967225,None,,,,p006,2026-04-14_14h15.40.871,Flanker Compatibility Task,,2026.1.1,119.70456918697413,2026-04-14 14h15.41.175104 +0800
3,diamond,cong,-10,l,4,3,3,0,l,1,0.769276,None,,,,,0,3,3,124,40.74197979999008,,,,,,,,40.73403759999201,41.22941919998266,41.99964930000715,,,,,,,,,,l,1,0.769276,None,,,,p006,2026-04-14_14h15.40.871,Flanker Compatibility Task,,2026.1.1,119.70456918697413,2026-04-14 14h15.41.175104 +0800
2,diamond,cong,10,l,4,4,4,0,l,1,0.6839949000277556,None,,,,,0,4,4,82,42.007316900009755,,,,,,,,42.00079209997784,42.49512889998732,43.182846200012136,,,,,,,,,,l,1,0.6839949000277556,None,,,,p006,2026-04-14_14h15.40.871,Flanker Compatibility Task,,2026.1.1,119.70456918697413,2026-04-14 14h15.41.175104 +0800
4,square,incong,-10,a,2,5,5,0,a,1,0.6756854999694042,None,,,,,0,5,5,158,43.19011099997442,,,,,,,,43.18412089999765,43.67882209998788,44.35865939996438,,,,,,,,,,a,1,0.6756854999694042,None,,,,p006,2026-04-14_14h15.40.871,Flanker Compatibility Task,,2026.1.1,119.70456918697413,2026-04-14 14h15.41.175104 +0800
3,square,cong,10,a,4,6,6,0,a,1,0.6796625999850221,None,,,,,0,6,6,106,44.36472369998228,,,,,,,,44.36016709997784,44.8609954,45.54175329999998,,,,,,,,,,a,1,0.6796625999850221,None,,,,p006,2026-04-14_14h15.40.871,Flanker Compatibility Task,,2026.1.1,119.70456918697413,2026-04-14 14h15.41.175104 +0800
3,square,incong,10,a,4,7,7,0,a,1,0.7412146999849938,None,,,,,0,7,7,118,45.54788719996577,,,,,,,,45.54325579997385,46.04453630000353,46.790895299986005,,,,,,,,,,a,1,0.7412146999849938,None,,,,p006,2026-04-14_14h15.40.871,Flanker Compatibility Task,,2026.1.1,119.70456918697413,2026-04-14 14h15.41.175104 +0800
3,diamond,cong,10,l,5,8,8,0,l,1,0.6902389000169933,None,,,,,0,8,8,131,46.798267400008626,,,,,,,,46.79225910000969,47.29499530000612,47.98969889996806,,,,,,,,,,l,1,0.6902389000169933,None,,,,p006,2026-04-14_14h15.40.871,Flanker Compatibility Task,,2026.1.1,119.70456918697413,2026-04-14 14h15.41.175104 +0800
4,diamond,incong,-10,l,2,9,9,0,l,1,0.7709682999993674,None,,,,,0,9,9,182,47.99796989996685,,,,,,,,47.99075970001286,48.48408570000902,49.25644909997936,,,,,,,,,,l,1,0.7709682999993674,None,,,,p006,2026-04-14_14h15.40.871,Flanker Compatibility Task,,2026.1.1,119.70456918697413,2026-04-14 14h15.41.175104 +0800
4,square,cong,-10,a,4,10,10,0,a,1,0.6313684,None,,,,,0,10,10,148,49.2640866,,,,,,,,49.25788449996617,49.75975079997443,50.397407400014345,,,,,,,,,,a,1,0.6313684,None,,,,p006,2026-04-14_14h15.40.871,Flanker Compatibility Task,,2026.1.1,119.70456918697413,2026-04-14 14h15.41.175104 +0800
3,diamond,incong,10,l,5,11,11,0,l,1,0.6874092000070959,None,,,,,0,11,11,143,50.40489700000035,,,,,,,,50.39841939997859,50.88871550001204,51.580257900001016,,,,,,,,,,l,1,0.6874092000070959,None,,,,p006,2026-04-14_14h15.40.871,Flanker Compatibility Task,,2026.1.1,119.70456918697413,2026-04-14 14h15.41.175104 +0800
4,square,cong,10,a,4,12,12,0,a,1,0.6734717999934219,None,,,,,0,12,12,154,51.588146099995356,,,,,,,,51.581301099970005,52.07822819997091,52.755049799976405,,,,,,,,,,a,1,0.6734717999934219,None,,,,p006,2026-04-14_14h15.40.871,Flanker Compatibility Task,,2026.1.1,119.70456918697413,2026-04-14 14h15.41.175104 +0800
3,square,incong,10,a,5,13,13,0,a,1,0.6723444000235759,None,,,,,0,13,13,119,52.76407969999127,,,,,,,,52.75605099997483,53.24994110001717,53.92983069998445,,,,,,,,,,a,1,0.6723444000235759,None,,,,p006,2026-04-14_14h15.40.871,Flanker Compatibility Task,,2026.1.1,119.70456918697413,2026-04-14 14h15.41.175104 +0800
4,diamond,incong,-10,l,4,14,14,0,l,1,0.6145999,None,,,,,0,14,14,184,53.93816209997749,,,,,,,,53.93116550002014,54.42204199999105,55.03833919996396,,,,,,,,,,l,1,0.6145999,None,,,,p006,2026-04-14_14h15.40.871,Flanker Compatibility Task,,2026.1.1,119.70456918697413,2026-04-14 14h15.41.175104 +0800
2,square,cong,10,a,3,15,15,0,a,1,0.5821265000267886,None,,,,,0,15,15,57,55.045644800004084,,,,,,,,55.03957670001546,55.533371999976225,56.12153629999375,,,,,,,,,,a,1,0.5821265000267886,None,,,,p006,2026-04-14_14h15.40.871,Flanker Compatibility Task,,2026.1.1,119.70456918697413,2026-04-14 14h15.41.175104 +0800
2,square,incong,10,a,0,16,16,0,a,1,0.5963324999902397,None,,,,,0,16,16,66,56.12885819998337,,,,,,,,56.12277820002055,56.61574729997665,57.2221,,,,,,,,,,a,1,0.5963324999902397,None,,,,p006,2026-04-14_14h15.40.871,Flanker Compatibility Task,,2026.1.1,119.70456918697413,2026-04-14 14h15.41.175104 +0800
2,square,cong,10,a,0,17,17,0,a,1,0.5930872000171803,None,,,,,0,17,17,54,57.22901199996704,,,,,,,,57.223313399998005,57.72213159996318,58.32075949996943,,,,,,,,,,a,1,0.5930872000171803,None,,,,p006,2026-04-14_14h15.40.871,Flanker Compatibility Task,,2026.1.1,119.70456918697413,2026-04-14 14h15.41.175104 +0800
1,square,incong,-10,a,2,18,18,0,a,1,0.7472201999626122,None,,,,,0,18,18,14,58.32832620001864,,,,,,,,58.32191299996339,58.816831499978434,59.57110439997632,,,,,,,,,,a,1,0.7472201999626122,None,,,,p006,2026-04-14_14h15.40.871,Flanker Compatibility Task,,2026.1.1,119.70456918697413,2026-04-14 14h15.41.175104 +0800
4,square,cong,10,a,0,19,19,0,a,1,1.1274739000364207,None,,,,,0,19,19,150,59.578558499983046,,,,,,,,59.57267620001221,60.06648390000919,61.20323709998047,,,,,,,,,,a,1,1.1274739000364207,None,,,,p006,2026-04-14_14h15.40.871,Flanker Compatibility Task,,2026.1.1,119.70456918697413,2026-04-14 14h15.41.175104 +0800
4,square,incong,10,a,3,20,20,0,a,1,0.8229194000014104,None,,,,,0,20,20,165,61.210659299977124,,,,,,,,61.204694899963215,61.69943779997993,62.52804710000055,,,,,,,,,,a,1,0.8229194000014104,None,,,,p006,2026-04-14_14h15.40.871,Flanker Compatibility Task,,2026.1.1,119.70456918697413,2026-04-14 14h15.41.175104 +0800
3,square,cong,-10,a,5,21,21,0,a,1,0.7371393999783322,None,,,,,0,21,21,101,62.536063299980015,,,,,,,,62.52954650000902,63.02480489999289,63.769453199987765,,,,,,,,,,a,1,0.7371393999783322,None,,,,p006,2026-04-14_14h15.40.871,Flanker Compatibility Task,,2026.1.1,119.70456918697413,2026-04-14 14h15.41.175104 +0800
3,square,cong,-10,a,0,22,22,0,a,1,0.6174330999492668,None,,,,,0,22,22,96,63.77703359996667,,,,,,,,63.770429499971215,64.26284969999688,64.88559019996319,,,,,,,,,,a,1,0.6174330999492668,None,,,,p006,2026-04-14_14h15.40.871,Flanker Compatibility Task,,2026.1.1,119.70456918697413,2026-04-14 14h15.41.175104 +0800
4,square,incong,-10,a,0,23,23,0,a,1,0.5587595999822952,None,,,,,0,23,23,156,64.89316360000521,,,,,,,,64.88706719997572,65.38190350000514,65.94501949998084,,,,,,,,,,a,1,0.5587595999822952,None,,,,p006,2026-04-14_14h15.40.871,Flanker Compatibility Task,,2026.1.1,119.70456918697413,2026-04-14 14h15.41.175104 +0800
4,diamond,cong,10,l,3,24,24,0,l,1,0.6278537000180222,None,,,,,0,24,24,177,65.95109919999959,,,,,,,,65.94657450000523,66.44990040000994,67.085782,,,,,,,,,,l,1,0.6278537000180222,None,,,,p006,2026-04-14_14h15.40.871,Flanker Compatibility Task,,2026.1.1,119.70456918697413,2026-04-14 14h15.41.175104 +0800
1,diamond,cong,10,l,5,25,25,0,l,1,0.4922804999514483,None,,,,,0,25,25,35,67.09303350001574,,,,,,,,67.086849,67.57998839998618,68.07695989997592,,,,,,,,,,l,1,0.4922804999514483,None,,,,p006,2026-04-14_14h15.40.871,Flanker Compatibility Task,,2026.1.1,119.70456918697413,2026-04-14 14h15.41.175104 +0800
2,square,incong,10,a,5,26,26,0,a,1,0.5974406,None,,,,,0,26,26,71,68.08403159998124,,,,,,,,68.07833270000992,68.57827319996431,69.18437619996257,,,,,,,,,,a,1,0.5974406,None,,,,p006,2026-04-14_14h15.40.871,Flanker Compatibility Task,,2026.1.1,119.70456918697413,2026-04-14 14h15.41.175104 +0800
3,square,incong,10,a,2,27,27,0,a,1,0.8264490999863483,None,,,,,0,27,27,116,69.19193729996914,,,,,,,,69.18578759999946,69.6777799,70.50980810000328,,,,,,,,,,a,1,0.8264490999863483,None,,,,p006,2026-04-14_14h15.40.871,Flanker Compatibility Task,,2026.1.1,119.70456918697413,2026-04-14 14h15.41.175104 +0800
3,square,cong,-10,a,4,28,28,0,a,1,0.7687927,None,,,,,0,28,28,100,70.51678489998449,,,,,,,,70.51088710001204,71.010696,71.78389129997231,,,,,,,,,,a,1,0.7687927,None,,,,p006,2026-04-14_14h15.40.871,Flanker Compatibility Task,,2026.1.1,119.70456918697413,2026-04-14 14h15.41.175104 +0800
1,diamond,incong,-10,l,0,29,29,0,l,1,0.5770502000232227,None,,,,,0,29,29,36,71.79161879996536,,,,,,,,71.78482409997378,72.2787427,72.85862010001438,,,,,,,,,,l,1,0.5770502000232227,None,,,,p006,2026-04-14_14h15.40.871,Flanker Compatibility Task,,2026.1.1,119.70456918697413,2026-04-14 14h15.41.175104 +0800
4,diamond,incong,10,l,1,30,30,0,l,1,0.9928368999972008,None,,,,,0,30,30,187,72.86639209999703,,,,,,,,72.8600901,73.35500290000346,74.35023460001685,,,,,,,,,,l,1,0.9928368999972008,None,,,,p006,2026-04-14_14h15.40.871,Flanker Compatibility Task,,2026.1.1,119.70456918697413,2026-04-14 14h15.41.175104 +0800
4,diamond,cong,10,l,4,31,31,0,l,1,0.7894599999999627,None,,,,,0,31,31,178,74.35746849997668,,,,,,,,74.35151100001531,74.85240809997777,75.64243589999387,,,,,,,,,,l,1,0.7894599999999627,None,,,,p006,2026-04-14_14h15.40.871,Flanker Compatibility Task,,2026.1.1,119.70456918697413,2026-04-14 14h15.41.175104 +0800
3,square,cong,10,a,2,32,32,0,a,1,0.6473870999761857,None,,,,,0,32,32,104,75.64886549999937,,,,,,,,75.64381609996781,76.14521069999319,76.79922649997752,,,,,,,,,,a,1,0.6473870999761857,None,,,,p006,2026-04-14_14h15.40.871,Flanker Compatibility Task,,2026.1.1,119.70456918697413,2026-04-14 14h15.41.175104 +0800
1,square,cong,-10,a,3,33,33,0,a,1,0.6096388000296429,None,,,,,0,33,33,3,76.80699710000772,,,,,,,,76.80038570001489,77.29486690001795,77.90705209999578,,,,,,,,,,a,1,0.6096388000296429,None,,,,p006,2026-04-14_14h15.40.871,Flanker Compatibility Task,,2026.1.1,119.70456918697413,2026-04-14 14h15.41.175104 +0800
1,diamond,incong,-10,l,3,34,34,0,l,1,0.6048434999538586,None,,,,,0,34,34,39,77.91490699996939,,,,,,,,77.9082378,78.4006416,79.0072534,,,,,,,,,,l,1,0.6048434999538586,None,,,,p006,2026-04-14_14h15.40.871,Flanker Compatibility Task,,2026.1.1,119.70456918697413,2026-04-14 14h15.41.175104 +0800
4,diamond,cong,-10,l,4,35,35,0,l,1,0.7363348000217229,None,,,,,0,35,35,172,79.0145394,,,,,,,,79.00860200001625,79.49905819998821,80.2397891,,,,,,,,,,l,1,0.7363348000217229,None,,,,p006,2026-04-14_14h15.40.871,Flanker Compatibility Task,,2026.1.1,119.70456918697413,2026-04-14 14h15.41.175104 +0800
1,diamond,incong,10,l,2,36,36,0,l,1,0.6603133999742568,None,,,,,0,36,36,44,80.24751580000157,,,,,,,,80.24070259998553,80.7360363,81.39911449997453,,,,,,,,,,l,1,0.6603133999742568,None,,,,p006,2026-04-14_14h15.40.871,Flanker Compatibility Task,,2026.1.1,119.70456918697413,2026-04-14 14h15.41.175104 +0800
3,diamond,incong,10,l,4,37,37,0,l,1,0.8097991999820806,None,,,,,0,37,37,142,81.40590269997483,,,,,,,,81.40045389998704,81.89542269997764,82.70665319997352,,,,,,,,,,l,1,0.8097991999820806,None,,,,p006,2026-04-14_14h15.40.871,Flanker Compatibility Task,,2026.1.1,119.70456918697413,2026-04-14 14h15.41.175104 +0800
3,diamond,incong,10,l,2,38,38,0,l,1,0.9852205999777652,None,,,,,0,38,38,140,82.71396570000798,,,,,,,,82.70810280001024,83.2022099,84.18892539996887,,,,,,,,,,l,1,0.9852205999777652,None,,,,p006,2026-04-14_14h15.40.871,Flanker Compatibility Task,,2026.1.1,119.70456918697413,2026-04-14 14h15.41.175104 +0800
1,diamond,cong,10,l,2,39,39,0,l,1,0.49875700002303347,None,,,,,0,39,39,32,84.19670630001929,,,,,,,,84.1901108,84.68170959997224,85.18121120001888,,,,,,,,,,l,1,0.49875700002303347,None,,,,p006,2026-04-14_14h15.40.871,Flanker Compatibility Task,,2026.1.1,119.70456918697413,2026-04-14 14h15.41.175104 +0800
4,diamond,incong,10,l,0,40,40,0,l,1,0.8816121999989264,None,,,,,0,40,40,186,85.1882485,,,,,,,,85.18264929996803,85.67674690001877,86.56451110000489,,,,,,,,,,l,1,0.8816121999989264,None,,,,p006,2026-04-14_14h15.40.871,Flanker Compatibility Task,,2026.1.1,119.70456918697413,2026-04-14 14h15.41.175104 +0800
3,diamond,incong,-10,l,3,41,41,0,l,1,0.9137779000448063,None,,,,,0,41,41,135,86.5714007,,,,,,,,86.56658260000404,87.06785220000893,87.98820849996991,,,,,,,,,,l,1,0.9137779000448063,None,,,,p006,2026-04-14_14h15.40.871,Flanker Compatibility Task,,2026.1.1,119.70456918697413,2026-04-14 14h15.41.175104 +0800
1,square,cong,-10,a,2,42,42,0,a,1,0.5752094000345096,None,,,,,0,42,42,2,87.9971359,,,,,,,,87.98940700001549,88.4831445,89.06393880001269,,,,,,,,,,a,1,0.5752094000345096,None,,,,p006,2026-04-14_14h15.40.871,Flanker Compatibility Task,,2026.1.1,119.70456918697413,2026-04-14 14h15.41.175104 +0800
4,diamond,incong,-10,l,0,43,43,0,l,1,0.7999345000134781,None,,,,,0,43,43,180,89.07050610001897,,,,,,,,89.06538129999535,89.56484030000865,90.37168360000942,,,,,,,,,,l,1,0.7999345000134781,None,,,,p006,2026-04-14_14h15.40.871,Flanker Compatibility Task,,2026.1.1,119.70456918697413,2026-04-14 14h15.41.175104 +0800
2,diamond,incong,10,l,4,44,44,0,l,1,0.5930911999894306,None,,,,,0,44,44,94,90.37960579997161,,,,,,,,90.37292080000043,90.86559120001039,91.46267759997863,,,,,,,,,,l,1,0.5930911999894306,None,,,,p006,2026-04-14_14h15.40.871,Flanker Compatibility Task,,2026.1.1,119.70456918697413,2026-04-14 14h15.41.175104 +0800
4,square,cong,-10,a,2,45,45,0,a,1,0.7127609999733977,None,,,,,0,45,45,146,91.47031820000848,,,,,,,,91.4640937,91.96397400001297,92.67917010001838,,,,,,,,,,a,1,0.7127609999733977,None,,,,p006,2026-04-14_14h15.40.871,Flanker Compatibility Task,,2026.1.1,119.70456918697413,2026-04-14 14h15.41.175104 +0800
3,diamond,cong,-10,l,5,46,46,0,l,1,0.5894777000066824,None,,,,,0,46,46,125,92.6864343,,,,,,,,92.6805281,93.17401020001853,93.76992609997978,,,,,,,,,,l,1,0.5894777000066824,None,,,,p006,2026-04-14_14h15.40.871,Flanker Compatibility Task,,2026.1.1,119.70456918697413,2026-04-14 14h15.41.175104 +0800
1,square,incong,10,a,2,47,47,0,a,1,0.7081291999784298,None,,,,,0,47,47,20,93.779123,,,,,,,,93.77114600001369,94.26560839999001,94.97854829998687,,,,,,,,,,a,1,0.7081291999784298,None,,,,p006,2026-04-14_14h15.40.871,Flanker Compatibility Task,,2026.1.1,119.70456918697413,2026-04-14 14h15.41.175104 +0800
4,diamond,incong,10,l,2,48,48,0,l,1,0.7397912000305951,None,,,,,0,48,48,188,94.98581139999442,,,,,,,,94.97998329997063,95.48052270000335,96.2277899,,,,,,,,,,l,1,0.7397912000305951,None,,,,p006,2026-04-14_14h15.40.871,Flanker Compatibility Task,,2026.1.1,119.70456918697413,2026-04-14 14h15.41.175104 +0800
1,square,cong,-10,a,5,49,49,0,a,1,0.6033418999868445,None,,,,,0,49,49,5,96.23540299996966,,,,,,,,96.22900499997195,96.71907539997483,97.32858099997975,,,,,,,,,,a,1,0.6033418999868445,None,,,,p006,2026-04-14_14h15.40.871,Flanker Compatibility Task,,2026.1.1,119.70456918697413,2026-04-14 14h15.41.175104 +0800
1,diamond,incong,10,l,4,50,50,0,l,1,0.5582339999964461,None,,,,,0,50,50,46,97.33612639998319,,,,,,,,97.32979210000485,97.8307666,98.39484949997859,,,,,,,,,,l,1,0.5582339999964461,None,,,,p006,2026-04-14_14h15.40.871,Flanker Compatibility Task,,2026.1.1,119.70456918697413,2026-04-14 14h15.41.175104 +0800
3,diamond,cong,10,l,2,51,51,0,l,1,0.9493558999965899,None,,,,,0,51,51,128,98.4015492,,,,,,,,98.3962316,98.89738069998566,99.8519894,,,,,,,,,,l,1,0.9493558999965899,None,,,,p006,2026-04-14_14h15.40.871,Flanker Compatibility Task,,2026.1.1,119.70456918697413,2026-04-14 14h15.41.175104 +0800
4,diamond,cong,-10,l,2,52,52,0,l,1,0.5745823999750428,None,,,,,0,52,52,170,99.85932320001302,,,,,,,,99.85312899999553,100.34649749996606,100.92704839998623,,,,,,,,,,l,1,0.5745823999750428,None,,,,p006,2026-04-14_14h15.40.871,Flanker Compatibility Task,,2026.1.1,119.70456918697413,2026-04-14 14h15.41.175104 +0800
2,diamond,cong,-10,l,3,53,53,0,a,0,0.5843435000278987,None,,,,,0,53,53,75,100.93419469997752,,,,,,,,100.9284538999782,101.42149729997618,102.0116753000184,,,,,,,,,,a,0,0.5843435000278987,None,,,,p006,2026-04-14_14h15.40.871,Flanker Compatibility Task,,2026.1.1,119.70456918697413,2026-04-14 14h15.41.175104 +0800
3,diamond,cong,-10,l,1,54,54,0,l,1,0.9966448,None,,,,,0,54,54,121,102.01715550001245,,,,,,,,102.01274699997157,102.51336039998569,103.51840240001911,,,,,,,,,,l,1,0.9966448,None,,,,p006,2026-04-14_14h15.40.871,Flanker Compatibility Task,,2026.1.1,119.70456918697413,2026-04-14 14h15.41.175104 +0800
3,diamond,cong,10,l,4,55,55,0,l,1,0.6612565999967046,None,,,,,0,55,55,130,103.5258157000062,,,,,,,,103.51999260002049,104.0147857,104.68439000000944,,,,,,,,,,l,1,0.6612565999967046,None,,,,p006,2026-04-14_14h15.40.871,Flanker Compatibility Task,,2026.1.1,119.70456918697413,2026-04-14 14h15.41.175104 +0800
1,diamond,incong,10,l,1,56,56,0,l,1,0.5433988000149839,None,,,,,0,56,56,43,104.69182579999324,,,,,,,,104.68558409996331,105.17905939999036,105.72507270000642,,,,,,,,,,l,1,0.5433988000149839,None,,,,p006,2026-04-14_14h15.40.871,Flanker Compatibility Task,,2026.1.1,119.70456918697413,2026-04-14 14h15.41.175104 +0800
2,square,cong,-10,a,3,57,57,0,a,1,0.8009863,None,,,,,0,57,57,51,105.733975,,,,,,,,105.72621039999649,106.21669059997657,107.02502729999833,,,,,,,,,,a,1,0.8009863,None,,,,p006,2026-04-14_14h15.40.871,Flanker Compatibility Task,,2026.1.1,119.70456918697413,2026-04-14 14h15.41.175104 +0800
1,square,cong,-10,a,0,58,58,0,l,0,0.5363126999582164,None,,,,,0,58,58,0,107.03317369997967,,,,,,,,107.02620219998062,107.52000630000839,108.05780070001492,,,,,,,,,,l,0,0.5363126999582164,None,,,,p006,2026-04-14_14h15.40.871,Flanker Compatibility Task,,2026.1.1,119.70456918697413,2026-04-14 14h15.41.175104 +0800
1,diamond,cong,10,l,0,59,59,0,l,1,0.8398641999810934,None,,,,,0,59,59,30,108.06585889996495,,,,,,,,108.0589425,108.551026,109.39224040001864,,,,,,,,,,l,1,0.8398641999810934,None,,,,p006,2026-04-14_14h15.40.871,Flanker Compatibility Task,,2026.1.1,119.70456918697413,2026-04-14 14h15.41.175104 +0800
1,diamond,cong,-10,l,4,60,60,0,l,1,0.5102884,None,,,,,0,60,60,28,109.39959320001071,,,,,,,,109.39360329997726,109.8917585000163,110.40733239997644,,,,,,,,,,l,1,0.5102884,None,,,,p006,2026-04-14_14h15.40.871,Flanker Compatibility Task,,2026.1.1,119.70456918697413,2026-04-14 14h15.41.175104 +0800
2,square,cong,10,a,5,61,61,0,a,1,0.6491243000491522,None,,,,,0,61,61,59,110.41531159996521,,,,,,,,110.40869660000317,110.90270480001345,111.55743479996454,,,,,,,,,,a,1,0.6491243000491522,None,,,,p006,2026-04-14_14h15.40.871,Flanker Compatibility Task,,2026.1.1,119.70456918697413,2026-04-14 14h15.41.175104 +0800
3,diamond,incong,-10,l,4,62,62,0,l,1,0.8345873999642208,None,,,,,0,62,62,136,111.56483129999833,,,,,,,,111.55876849999186,112.0513956999639,112.89128999999957,,,,,,,,,,l,1,0.8345873999642208,None,,,,p006,2026-04-14_14h15.40.871,Flanker Compatibility Task,,2026.1.1,119.70456918697413,2026-04-14 14h15.41.175104 +0800
1,diamond,cong,-10,l,0,63,63,0,l,1,0.5369694,None,,,,,0,63,63,24,112.89863919996424,,,,,,,,112.89250249997713,113.38609839999117,113.93156409997027,,,,,,,,,,l,1,0.5369694,None,,,,p006,2026-04-14_14h15.40.871,Flanker Compatibility Task,,2026.1.1,119.70456918697413,2026-04-14 14h15.41.175104 +0800
1,diamond,incong,10,l,3,64,64,0,l,1,0.5110533999977633,None,,,,,0,64,64,45,113.94011159997899,,,,,,,,113.9327106999699,114.42669469997054,114.94063480000477,,,,,,,,,,l,1,0.5110533999977633,None,,,,p006,2026-04-14_14h15.40.871,Flanker Compatibility Task,,2026.1.1,119.70456918697413,2026-04-14 14h15.41.175104 +0800
3,square,cong,10,a,3,65,65,0,a,1,0.524749,None,,,,,0,65,65,105,114.94753589999164,,,,,,,,114.94211319996975,115.44057019997854,115.97373999998672,,,,,,,,,,a,1,0.524749,None,,,,p006,2026-04-14_14h15.40.871,Flanker Compatibility Task,,2026.1.1,119.70456918697413,2026-04-14 14h15.41.175104 +0800
2,diamond,cong,-10,l,1,66,66,0,l,1,0.6185106000048108,None,,,,,0,66,66,73,115.98146450001514,,,,,,,,115.9751271000132,116.4682415999705,117.09142010001233,,,,,,,,,,l,1,0.6185106000048108,None,,,,p006,2026-04-14_14h15.40.871,Flanker Compatibility Task,,2026.1.1,119.70456918697413,2026-04-14 14h15.41.175104 +0800
3,square,cong,-10,a,2,67,67,0,a,1,0.7164804000058211,None,,,,,0,67,67,98,117.09855970001081,,,,,,,,117.09290390001843,117.5907387000043,118.30787839996628,,,,,,,,,,a,1,0.7164804000058211,None,,,,p006,2026-04-14_14h15.40.871,Flanker Compatibility Task,,2026.1.1,119.70456918697413,2026-04-14 14h15.41.175104 +0800
1,square,cong,-10,a,1,68,68,0,a,1,0.6441474999883212,None,,,,,0,68,68,1,118.31587809999473,,,,,,,,118.30905059998622,118.80504459998338,119.45603910001228,,,,,,,,,,a,1,0.6441474999883212,None,,,,p006,2026-04-14_14h15.40.871,Flanker Compatibility Task,,2026.1.1,119.70456918697413,2026-04-14 14h15.41.175104 +0800
4,diamond,incong,-10,l,1,69,69,0,l,1,0.5293532999930903,None,,,,,0,69,69,181,119.46314399997937,,,,,,,,119.45721329998923,119.95153359998949,120.48862650000956,,,,,,,,,,l,1,0.5293532999930903,None,,,,p006,2026-04-14_14h15.40.871,Flanker Compatibility Task,,2026.1.1,119.70456918697413,2026-04-14 14h15.41.175104 +0800
2,diamond,cong,10,l,5,70,70,0,l,1,0.5732278999639675,None,,,,,0,70,70,83,120.4966706999694,,,,,,,,120.49021879996872,120.98407549998956,121.56309529999271,,,,,,,,,,l,1,0.5732278999639675,None,,,,p006,2026-04-14_14h15.40.871,Flanker Compatibility Task,,2026.1.1,119.70456918697413,2026-04-14 14h15.41.175104 +0800
2,square,cong,10,a,1,71,71,0,a,1,0.7117190999560989,None,,,,,0,71,71,55,121.57071840000572,,,,,,,,121.56407819996821,122.05615409999155,122.77147229999537,,,,,,,,,,a,1,0.7117190999560989,None,,,,p006,2026-04-14_14h15.40.871,Flanker Compatibility Task,,2026.1.1,119.70456918697413,2026-04-14 14h15.41.175104 +0800
4,square,incong,10,a,2,72,72,0,a,1,0.7690459999721497,None,,,,,0,72,72,164,122.77876339998329,,,,,,,,122.77303480001865,123.2681349000195,124.03849429998081,,,,,,,,,,a,1,0.7690459999721497,None,,,,p006,2026-04-14_14h15.40.871,Flanker Compatibility Task,,2026.1.1,119.70456918697413,2026-04-14 14h15.41.175104 +0800
4,square,incong,10,a,4,73,73,0,a,1,0.6670027,None,,,,,0,73,73,166,124.0461163999862,,,,,,,,124.03996029996779,124.5340652000159,125.20437459996901,,,,,,,,,,a,1,0.6670027,None,,,,p006,2026-04-14_14h15.40.871,Flanker Compatibility Task,,2026.1.1,119.70456918697413,2026-04-14 14h15.41.175104 +0800
3,diamond,incong,10,l,0,74,74,0,l,1,1.520897300040815,None,,,,,0,74,74,138,125.21156769996742,,,,,,,,125.2057375999866,125.69828840001719,127.2216220999835,,,,,,,,,,l,1,1.520897300040815,None,,,,p006,2026-04-14_14h15.40.871,Flanker Compatibility Task,,2026.1.1,119.70456918697413,2026-04-14 14h15.41.175104 +0800
2,diamond,cong,-10,l,2,75,75,0,l,1,0.5566144000040367,None,,,,,0,75,75,74,127.22877009998774,,,,,,,,127.22295540000778,127.72421710001072,128.28798459999962,,,,,,,,,,l,1,0.5566144000040367,None,,,,p006,2026-04-14_14h15.40.871,Flanker Compatibility Task,,2026.1.1,119.70456918697413,2026-04-14 14h15.41.175104 +0800
3,square,incong,10,a,1,76,76,0,a,1,0.6864128999877721,None,,,,,0,76,76,115,128.29523990000598,,,,,,,,128.2894598999992,128.79072150000138,129.47945260000415,,,,,,,,,,a,1,0.6864128999877721,None,,,,p006,2026-04-14_14h15.40.871,Flanker Compatibility Task,,2026.1.1,119.70456918697413,2026-04-14 14h15.41.175104 +0800
4,square,incong,10,a,1,77,77,0,a,1,0.5612789000151679,None,,,,,0,77,77,163,129.48626899998635,,,,,,,,129.48103439999977,129.98230510001304,130.54584310000064,,,,,,,,,,a,1,0.5612789000151679,None,,,,p006,2026-04-14_14h15.40.871,Flanker Compatibility Task,,2026.1.1,119.70456918697413,2026-04-14 14h15.41.175104 +0800
4,square,incong,-10,a,5,78,78,0,a,1,0.8977344000013545,None,,,,,0,78,78,161,130.55259550001938,,,,,,,,130.54744509997545,131.04640890000155,131.9529557999922,,,,,,,,,,a,1,0.8977344000013545,None,,,,p006,2026-04-14_14h15.40.871,Flanker Compatibility Task,,2026.1.1,119.70456918697413,2026-04-14 14h15.41.175104 +0800
1,diamond,incong,-10,l,2,79,79,0,l,1,0.5858938000164926,None,,,,,0,79,79,38,131.96077110001352,,,,,,,,131.9541096999892,132.4451515999972,133.03647880000062,,,,,,,,,,l,1,0.5858938000164926,None,,,,p006,2026-04-14_14h15.40.871,Flanker Compatibility Task,,2026.1.1,119.70456918697413,2026-04-14 14h15.41.175104 +0800
2,square,cong,10,a,4,80,80,0,a,1,0.5693425000063144,None,,,,,0,80,80,58,133.04402159998426,,,,,,,,133.03784070000984,133.5309597000014,134.10232529998757,,,,,,,,,,a,1,0.5693425000063144,None,,,,p006,2026-04-14_14h15.40.871,Flanker Compatibility Task,,2026.1.1,119.70456918697413,2026-04-14 14h15.41.175104 +0800
4,diamond,incong,10,l,5,81,81,0,l,1,1.2409037000034004,None,,,,,0,81,81,191,134.11017150001135,,,,,,,,134.10372299997834,134.5985944,135.84385499998461,,,,,,,,,,l,1,1.2409037000034004,None,,,,p006,2026-04-14_14h15.40.871,Flanker Compatibility Task,,2026.1.1,119.70456918697413,2026-04-14 14h15.41.175104 +0800
3,square,incong,-10,a,5,82,82,0,a,1,0.7465848,None,,,,,0,82,82,113,135.85189360001823,,,,,,,,135.84519740001997,136.33889000001363,137.09307589998934,,,,,,,,,,a,1,0.7465848,None,,,,p006,2026-04-14_14h15.40.871,Flanker Compatibility Task,,2026.1.1,119.70456918697413,2026-04-14 14h15.41.175104 +0800
3,diamond,cong,-10,l,3,83,83,0,l,1,1.0013904999941587,None,,,,,0,83,83,123,137.1011506000068,,,,,,,,137.09419279999565,137.58782630000496,138.5930904999841,,,,,,,,,,l,1,1.0013904999941587,None,,,,p006,2026-04-14_14h15.40.871,Flanker Compatibility Task,,2026.1.1,119.70456918697413,2026-04-14 14h15.41.175104 +0800
2,square,incong,10,a,2,84,84,0,a,1,0.6134842000319622,None,,,,,0,84,84,68,138.6008928999654,,,,,,,,138.5943297999911,139.08688040002016,139.70915609999793,,,,,,,,,,a,1,0.6134842000319622,None,,,,p006,2026-04-14_14h15.40.871,Flanker Compatibility Task,,2026.1.1,119.70456918697413,2026-04-14 14h15.41.175104 +0800
3,diamond,incong,-10,l,0,85,85,0,l,1,0.6322082999977283,None,,,,,0,85,85,132,139.71799689996988,,,,,,,,139.7104862999986,140.20480810001027,140.8426226999727,,,,,,,,,,l,1,0.6322082999977283,None,,,,p006,2026-04-14_14h15.40.871,Flanker Compatibility Task,,2026.1.1,119.70456918697413,2026-04-14 14h15.41.175104 +0800
3,square,incong,-10,a,2,86,86,0,a,1,0.6387696000165306,None,,,,,0,86,86,110,140.85058099997696,,,,,,,,140.84403749997728,141.33502529998077,141.97607619996415,,,,,,,,,,a,1,0.6387696000165306,None,,,,p006,2026-04-14_14h15.40.871,Flanker Compatibility Task,,2026.1.1,119.70456918697413,2026-04-14 14h15.41.175104 +0800
2,square,incong,10,a,1,87,87,0,a,1,0.7527311000158079,None,,,,,0,87,87,67,141.98385919997236,,,,,,,,141.9774780999869,142.47016460000305,143.22432829998434,,,,,,,,,,a,1,0.7527311000158079,None,,,,p006,2026-04-14_14h15.40.871,Flanker Compatibility Task,,2026.1.1,119.70456918697413,2026-04-14 14h15.41.175104 +0800
1,square,cong,10,a,5,88,88,0,a,1,0.6406412000069395,None,,,,,0,88,88,11,143.23188169999048,,,,,,,,143.2252479000017,143.7193721999647,144.36667499999749,,,,,,,,,,a,1,0.6406412000069395,None,,,,p006,2026-04-14_14h15.40.871,Flanker Compatibility Task,,2026.1.1,119.70456918697413,2026-04-14 14h15.41.175104 +0800
2,square,cong,10,a,2,89,89,0,a,1,0.7969181000371464,None,,,,,0,89,89,56,144.37431159999687,,,,,,,,144.3680792999803,144.85941309999907,145.6583114999812,,,,,,,,,,a,1,0.7969181000371464,None,,,,p006,2026-04-14_14h15.40.871,Flanker Compatibility Task,,2026.1.1,119.70456918697413,2026-04-14 14h15.41.175104 +0800
1,square,incong,10,a,0,90,90,0,l,0,0.8272779,None,,,,,0,90,90,18,145.66543679998722,,,,,,,,145.6593735999777,146.15293979999842,146.98216119996505,,,,,,,,,,l,0,0.8272779,None,,,,p006,2026-04-14_14h15.40.871,Flanker Compatibility Task,,2026.1.1,119.70456918697413,2026-04-14 14h15.41.175104 +0800
1,square,cong,-10,a,4,91,91,0,a,1,1.2565365000045858,None,,,,,0,91,91,4,146.98945340001956,,,,,,,,146.98332230001688,147.4771726,148.7406847999664,,,,,,,,,,a,1,1.2565365000045858,None,,,,p006,2026-04-14_14h15.40.871,Flanker Compatibility Task,,2026.1.1,119.70456918697413,2026-04-14 14h15.41.175104 +0800
2,diamond,cong,10,l,3,92,92,0,l,1,0.6331528,None,,,,,0,92,92,81,148.74818310001865,,,,,,,,148.74169659998734,149.23494529997697,149.87298939999891,,,,,,,,,,l,1,0.6331528,None,,,,p006,2026-04-14_14h15.40.871,Flanker Compatibility Task,,2026.1.1,119.70456918697413,2026-04-14 14h15.41.175104 +0800
1,square,incong,10,a,3,93,93,0,a,1,0.7272319000330754,None,,,,,0,93,93,21,149.8807175999973,,,,,,,,149.87415950000286,150.3682632999844,151.09801189997233,,,,,,,,,,a,1,0.7272319000330754,None,,,,p006,2026-04-14_14h15.40.871,Flanker Compatibility Task,,2026.1.1,119.70456918697413,2026-04-14 14h15.41.175104 +0800
4,diamond,cong,10,l,1,94,94,0,l,1,1.584843099990394,None,,,,,0,94,94,175,151.1054403000162,,,,,,,,151.09952669998165,151.59311549999984,153.18063189997338,,,,,,,,,,l,1,1.584843099990394,None,,,,p006,2026-04-14_14h15.40.871,Flanker Compatibility Task,,2026.1.1,119.70456918697413,2026-04-14 14h15.41.175104 +0800
2,square,incong,-10,a,2,95,95,0,a,1,0.49248809996061027,None,,,,,0,95,95,62,153.18808689998696,,,,,,,,153.18165669997688,153.6756441000034,154.17156079999404,,,,,,,,,,a,1,0.49248809996061027,None,,,,p006,2026-04-14_14h15.40.871,Flanker Compatibility Task,,2026.1.1,119.70456918697413,2026-04-14 14h15.41.175104 +0800
4,diamond,cong,10,l,2,96,96,0,l,1,1.0434602000168525,None,,,,,0,96,96,176,154.1792759000091,,,,,,,,154.17298849998042,154.6662546999869,155.7133623000118,,,,,,,,,,l,1,1.0434602000168525,None,,,,p006,2026-04-14_14h15.40.871,Flanker Compatibility Task,,2026.1.1,119.70456918697413,2026-04-14 14h15.41.175104 +0800
4,diamond,incong,-10,l,3,97,97,0,l,1,1.2674585999920964,None,,,,,0,97,97,183,155.7213017999893,,,,,,,,155.71448560000863,156.20893610001076,157.47949220001465,,,,,,,,,,l,1,1.2674585999920964,None,,,,p006,2026-04-14_14h15.40.871,Flanker Compatibility Task,,2026.1.1,119.70456918697413,2026-04-14 14h15.41.175104 +0800
1,square,incong,10,a,4,98,98,0,a,1,0.47800639999331906,None,,,,,0,98,98,22,157.4871570999967,,,,,,,,157.48065330000827,157.97180749999825,158.4537621999625,,,,,,,,,,a,1,0.47800639999331906,None,,,,p006,2026-04-14_14h15.40.871,Flanker Compatibility Task,,2026.1.1,119.70456918697413,2026-04-14 14h15.41.175104 +0800
2,square,cong,-10,a,4,99,99,0,l,0,0.5522611999767832,None,,,,,0,99,99,52,158.46166640002048,,,,,,,,158.45503760001156,158.94982939999318,159.50396790000377,,,,,,,,,,l,0,0.5522611999767832,None,,,,p006,2026-04-14_14h15.40.871,Flanker Compatibility Task,,2026.1.1,119.70456918697413,2026-04-14 14h15.41.175104 +0800
2,diamond,incong,10,l,1,100,100,0,l,1,0.6561587000032887,None,,,,,0,100,100,91,159.51144249999197,,,,,,,,159.50513529998716,159.99904899997637,160.66345910000382,,,,,,,,,,l,1,0.6561587000032887,None,,,,p006,2026-04-14_14h15.40.871,Flanker Compatibility Task,,2026.1.1,119.70456918697413,2026-04-14 14h15.41.175104 +0800
4,square,incong,-10,a,1,101,101,0,a,1,0.5219786000088789,None,,,,,0,101,101,157,160.67015929997433,,,,,,,,160.6648891000077,161.16640689998167,161.69573999999557,,,,,,,,,,a,1,0.5219786000088789,None,,,,p006,2026-04-14_14h15.40.871,Flanker Compatibility Task,,2026.1.1,119.70456918697413,2026-04-14 14h15.41.175104 +0800
4,square,incong,-10,a,3,102,102,0,a,1,0.5921271999832243,None,,,,,0,102,102,159,161.70333129999926,,,,,,,,161.69728109997232,162.1962007000111,162.79492050001863,,,,,,,,,,a,1,0.5921271999832243,None,,,,p006,2026-04-14_14h15.40.871,Flanker Compatibility Task,,2026.1.1,119.70456918697413,2026-04-14 14h15.41.175104 +0800
3,diamond,cong,10,l,0,103,103,0,l,1,0.8903982000192627,None,,,,,0,103,103,126,162.80210299999453,,,,,,,,162.79627330001676,163.29761969996616,164.19451309996657,,,,,,,,,,l,1,0.8903982000192627,None,,,,p006,2026-04-14_14h15.40.871,Flanker Compatibility Task,,2026.1.1,119.70456918697413,2026-04-14 14h15.41.175104 +0800
3,square,cong,-10,a,1,104,104,0,a,1,0.7265019,None,,,,,0,104,104,97,164.20291629998246,,,,,,,,164.1955103999935,164.69034189998638,165.42004150000867,,,,,,,,,,a,1,0.7265019,None,,,,p006,2026-04-14_14h15.40.871,Flanker Compatibility Task,,2026.1.1,119.70456918697413,2026-04-14 14h15.41.175104 +0800
1,diamond,incong,-10,l,4,105,105,0,l,1,0.5731158999842592,None,,,,,0,105,105,40,165.4265806999756,,,,,,,,165.4212882000138,165.92178949998925,166.50163840001915,,,,,,,,,,l,1,0.5731158999842592,None,,,,p006,2026-04-14_14h15.40.871,Flanker Compatibility Task,,2026.1.1,119.70456918697413,2026-04-14 14h15.41.175104 +0800
1,diamond,cong,10,l,4,106,106,0,l,1,0.7088411999866366,None,,,,,0,106,106,34,166.50961820001248,,,,,,,,166.50280610000482,166.9970174,167.7109413999715,,,,,,,,,,l,1,0.7088411999866366,None,,,,p006,2026-04-14_14h15.40.871,Flanker Compatibility Task,,2026.1.1,119.70456918697413,2026-04-14 14h15.41.175104 +0800
1,diamond,cong,10,l,3,107,107,0,l,1,0.5465503000305034,None,,,,,0,107,107,33,167.71785289997933,,,,,,,,167.7125707999803,168.20631679997314,168.7596900999779,,,,,,,,,,l,1,0.5465503000305034,None,,,,p006,2026-04-14_14h15.40.871,Flanker Compatibility Task,,2026.1.1,119.70456918697413,2026-04-14 14h15.41.175104 +0800
3,diamond,cong,10,l,1,108,108,0,l,1,0.5384267,None,,,,,0,108,108,127,168.76719350001076,,,,,,,,168.76101030001882,169.25304769998183,169.7938709000009,,,,,,,,,,l,1,0.5384267,None,,,,p006,2026-04-14_14h15.40.871,Flanker Compatibility Task,,2026.1.1,119.70456918697413,2026-04-14 14h15.41.175104 +0800
2,diamond,incong,-10,l,1,109,109,0,l,1,0.5495490999892354,None,,,,,0,109,109,85,169.8004502999829,,,,,,,,169.7952176000108,170.2940929000033,170.84441449999576,,,,,,,,,,l,1,0.5495490999892354,None,,,,p006,2026-04-14_14h15.40.871,Flanker Compatibility Task,,2026.1.1,119.70456918697413,2026-04-14 14h15.41.175104 +0800
4,square,cong,10,a,5,110,110,0,a,1,0.8935974,None,,,,,0,110,110,155,170.85020719998283,,,,,,,,170.84594239998842,171.3425331999897,172.2424416,,,,,,,,,,a,1,0.8935974,None,,,,p006,2026-04-14_14h15.40.871,Flanker Compatibility Task,,2026.1.1,119.70456918697413,2026-04-14 14h15.41.175104 +0800
3,diamond,incong,-10,l,1,111,111,0,l,1,1.0779947999981232,None,,,,,0,111,111,133,172.25008600001456,,,,,,,,172.2437797000166,172.73746089998167,173.81905109999934,,,,,,,,,,l,1,1.0779947999981232,None,,,,p006,2026-04-14_14h15.40.871,Flanker Compatibility Task,,2026.1.1,119.70456918697413,2026-04-14 14h15.41.175104 +0800
4,square,cong,-10,a,5,112,112,0,a,1,0.5726715000346303,None,,,,,0,112,112,149,173.82524759997614,,,,,,,,173.8205328999902,174.32014779996825,174.9002116000047,,,,,,,,,,a,1,0.5726715000346303,None,,,,p006,2026-04-14_14h15.40.871,Flanker Compatibility Task,,2026.1.1,119.70456918697413,2026-04-14 14h15.41.175104 +0800
3,square,cong,10,a,5,113,113,0,a,1,0.5464913999894634,None,,,,,0,113,113,107,174.9075857999851,,,,,,,,174.90119750000304,175.39368139998987,175.94124359998386,,,,,,,,,,a,1,0.5464913999894634,None,,,,p006,2026-04-14_14h15.40.871,Flanker Compatibility Task,,2026.1.1,119.70456918697413,2026-04-14 14h15.41.175104 +0800
4,diamond,cong,-10,l,5,114,114,0,l,1,0.6554179000086151,None,,,,,0,114,114,173,175.94933550001588,,,,,,,,175.94264169997768,176.4374595999834,177.10048959997948,,,,,,,,,,l,1,0.6554179000086151,None,,,,p006,2026-04-14_14h15.40.871,Flanker Compatibility Task,,2026.1.1,119.70456918697413,2026-04-14 14h15.41.175104 +0800
2,square,cong,-10,a,2,115,115,0,a,1,0.5775464000180364,None,,,,,0,115,115,50,177.10715529997833,,,,,,,,177.10177770000882,177.6002887999639,178.1822009999887,,,,,,,,,,a,1,0.5775464000180364,None,,,,p006,2026-04-14_14h15.40.871,Flanker Compatibility Task,,2026.1.1,119.70456918697413,2026-04-14 14h15.41.175104 +0800
2,diamond,incong,10,l,3,116,116,0,l,1,0.5267556000035256,None,,,,,0,116,116,93,178.1900196999777,,,,,,,,178.18342109996593,178.67461739998544,179.20725460001267,,,,,,,,,,l,1,0.5267556000035256,None,,,,p006,2026-04-14_14h15.40.871,Flanker Compatibility Task,,2026.1.1,119.70456918697413,2026-04-14 14h15.41.175104 +0800
3,square,cong,-10,a,3,117,117,0,a,1,0.8090275000431575,None,,,,,0,117,117,99,179.21613119996618,,,,,,,,179.20840669999598,179.70301589998417,180.51573330000974,,,,,,,,,,a,1,0.8090275000431575,None,,,,p006,2026-04-14_14h15.40.871,Flanker Compatibility Task,,2026.1.1,119.70456918697413,2026-04-14 14h15.41.175104 +0800
3,diamond,cong,-10,l,0,118,118,0,l,1,0.6231552999815904,None,,,,,0,118,118,120,180.52266770001734,,,,,,,,180.51703420002013,181.0158223999897,181.64096669998253,,,,,,,,,,l,1,0.6231552999815904,None,,,,p006,2026-04-14_14h15.40.871,Flanker Compatibility Task,,2026.1.1,119.70456918697413,2026-04-14 14h15.41.175104 +0800
1,square,incong,-10,a,1,119,119,0,l,0,0.5603708000271581,None,,,,,0,119,119,13,181.6473365999991,,,,,,,,181.64223110000603,182.13934649998555,182.7067129999632,,,,,,,,,,l,0,0.5603708000271581,None,,,,p006,2026-04-14_14h15.40.871,Flanker Compatibility Task,,2026.1.1,119.70456918697413,2026-04-14 14h15.41.175104 +0800
3,square,incong,-10,a,3,120,120,0,a,1,0.8711705000023358,None,,,,,0,120,120,111,182.71424389997264,,,,,,,,182.70815760002006,183.20299859996885,184.0810152000049,,,,,,,,,,a,1,0.8711705000023358,None,,,,p006,2026-04-14_14h15.40.871,Flanker Compatibility Task,,2026.1.1,119.70456918697413,2026-04-14 14h15.41.175104 +0800
4,diamond,cong,10,l,0,121,121,0,l,1,0.5024582000332884,None,,,,,0,121,121,174,184.0885385000147,,,,,,,,184.0823967999895,184.57732310000574,185.0804515,,,,,,,,,,l,1,0.5024582000332884,None,,,,p006,2026-04-14_14h15.40.871,Flanker Compatibility Task,,2026.1.1,119.70456918697413,2026-04-14 14h15.41.175104 +0800
2,diamond,incong,10,l,0,122,122,0,l,1,0.5437101000570692,None,,,,,0,122,122,90,185.08826340001542,,,,,,,,185.0812530000112,185.5756790000014,186.12231349997455,,,,,,,,,,l,1,0.5437101000570692,None,,,,p006,2026-04-14_14h15.40.871,Flanker Compatibility Task,,2026.1.1,119.70456918697413,2026-04-14 14h15.41.175104 +0800
4,diamond,cong,-10,l,0,123,123,0,l,1,0.5371241000248119,None,,,,,0,123,123,168,186.12989539996488,,,,,,,,186.12324459996307,186.61831869999878,187.16367530002026,,,,,,,,,,l,1,0.5371241000248119,None,,,,p006,2026-04-14_14h15.40.871,Flanker Compatibility Task,,2026.1.1,119.70456918697413,2026-04-14 14h15.41.175104 +0800
1,square,incong,-10,a,4,124,124,0,a,1,0.4526139000081457,None,,,,,0,124,124,16,187.17117420001887,,,,,,,,187.16485609998927,187.65855100000044,188.11324799997965,,,,,,,,,,a,1,0.4526139000081457,None,,,,p006,2026-04-14_14h15.40.871,Flanker Compatibility Task,,2026.1.1,119.70456918697413,2026-04-14 14h15.41.175104 +0800
2,square,incong,-10,a,4,125,125,0,a,1,0.4645825999905355,None,,,,,0,125,125,64,188.1215565999737,,,,,,,,188.11447480000788,188.60840079997433,189.08011939999415,,,,,,,,,,a,1,0.4645825999905355,None,,,,p006,2026-04-14_14h15.40.871,Flanker Compatibility Task,,2026.1.1,119.70456918697413,2026-04-14 14h15.41.175104 +0800
4,square,incong,-10,a,4,126,126,0,a,1,0.4700185000547208,None,,,,,0,126,126,160,189.08843720000004,,,,,,,,189.08187260001432,189.57577280001715,190.05436140001984,,,,,,,,,,a,1,0.4700185000547208,None,,,,p006,2026-04-14_14h15.40.871,Flanker Compatibility Task,,2026.1.1,119.70456918697413,2026-04-14 14h15.41.175104 +0800
1,diamond,incong,10,l,5,127,127,0,l,1,0.5031196000054479,None,,,,,0,127,127,47,190.06225269997958,,,,,,,,190.0554892999935,190.54750330001116,191.05438589997357,,,,,,,,,,l,1,0.5031196000054479,None,,,,p006,2026-04-14_14h15.40.871,Flanker Compatibility Task,,2026.1.1,119.70456918697413,2026-04-14 14h15.41.175104 +0800
2,diamond,cong,10,l,1,128,128,0,l,1,0.5869331000139937,None,,,,,0,128,128,79,191.06211150001036,,,,,,,,191.0555575999897,191.54888640000718,192.13839979999466,,,,,,,,,,l,1,0.5869331000139937,None,,,,p006,2026-04-14_14h15.40.871,Flanker Compatibility Task,,2026.1.1,119.70456918697413,2026-04-14 14h15.41.175104 +0800
2,diamond,incong,-10,l,4,129,129,0,l,1,0.5354431999730878,None,,,,,0,129,129,88,192.1448059999966,,,,,,,,192.1397274999763,192.63847569999052,193.1794363000081,,,,,,,,,,l,1,0.5354431999730878,None,,,,p006,2026-04-14_14h15.40.871,Flanker Compatibility Task,,2026.1.1,119.70456918697413,2026-04-14 14h15.41.175104 +0800
3,square,cong,10,a,0,130,130,0,a,1,0.5384159000241198,None,,,,,0,130,130,102,193.18706600001315,,,,,,,,193.1809143999708,193.68255919998046,194.2302917999914,,,,,,,,,,a,1,0.5384159000241198,None,,,,p006,2026-04-14_14h15.40.871,Flanker Compatibility Task,,2026.1.1,119.70456918697413,2026-04-14 14h15.41.175104 +0800
4,diamond,incong,10,l,3,131,131,0,l,1,0.7982245999737643,None,,,,,0,131,131,189,194.23708419996547,,,,,,,,194.23181289999047,194.73337620001985,195.53672089998145,,,,,,,,,,l,1,0.7982245999737643,None,,,,p006,2026-04-14_14h15.40.871,Flanker Compatibility Task,,2026.1.1,119.70456918697413,2026-04-14 14h15.41.175104 +0800
2,diamond,incong,-10,l,2,132,132,0,l,1,0.6116526999976486,None,,,,,0,132,132,86,195.54411640000762,,,,,,,,195.53763440001057,196.03035199997248,196.6441767999786,,,,,,,,,,l,1,0.6116526999976486,None,,,,p006,2026-04-14_14h15.40.871,Flanker Compatibility Task,,2026.1.1,119.70456918697413,2026-04-14 14h15.41.175104 +0800
3,square,incong,10,a,0,133,133,0,a,1,0.7326237999950536,None,,,,,0,133,133,114,196.6519557000138,,,,,,,,196.64558060001582,197.13622970000142,197.8698124999646,,,,,,,,,,a,1,0.7326237999950536,None,,,,p006,2026-04-14_14h15.40.871,Flanker Compatibility Task,,2026.1.1,119.70456918697413,2026-04-14 14h15.41.175104 +0800
1,square,cong,10,a,4,134,134,0,a,1,0.5659962000208907,None,,,,,0,134,134,10,197.8768654000014,,,,,,,,197.87098140001763,198.3629009000142,198.93534779996844,,,,,,,,,,a,1,0.5659962000208907,None,,,,p006,2026-04-14_14h15.40.871,Flanker Compatibility Task,,2026.1.1,119.70456918697413,2026-04-14 14h15.41.175104 +0800
1,diamond,incong,-10,l,5,135,135,0,l,1,0.48827789997449145,None,,,,,0,135,135,41,198.9437213,,,,,,,,198.9365150000085,199.43128740001703,199.9272068,,,,,,,,,,l,1,0.48827789997449145,None,,,,p006,2026-04-14_14h15.40.871,Flanker Compatibility Task,,2026.1.1,119.70456918697413,2026-04-14 14h15.41.175104 +0800
2,square,incong,10,a,3,136,136,0,a,1,0.6202931999578141,None,,,,,0,136,136,69,199.93463779997546,,,,,,,,199.92835860000923,200.4186869999976,201.04363669996383,,,,,,,,,,a,1,0.6202931999578141,None,,,,p006,2026-04-14_14h15.40.871,Flanker Compatibility Task,,2026.1.1,119.70456918697413,2026-04-14 14h15.41.175104 +0800
3,square,incong,-10,a,1,137,137,0,a,1,0.5791316999820992,None,,,,,0,137,137,109,201.0510541999829,,,,,,,,201.04501100000925,201.53894850000506,202.11871820001397,,,,,,,,,,a,1,0.5791316999820992,None,,,,p006,2026-04-14_14h15.40.871,Flanker Compatibility Task,,2026.1.1,119.70456918697413,2026-04-14 14h15.41.175104 +0800
2,square,incong,-10,a,0,138,138,0,a,1,0.5915390999871306,None,,,,,0,138,138,60,202.12564039998688,,,,,,,,202.11991569999373,202.61339239997324,203.2091843999806,,,,,,,,,,a,1,0.5915390999871306,None,,,,p006,2026-04-14_14h15.40.871,Flanker Compatibility Task,,2026.1.1,119.70456918697413,2026-04-14 14h15.41.175104 +0800
1,square,incong,-10,a,3,139,139,0,a,1,0.5402735999668948,None,,,,,0,139,139,15,203.21746660000645,,,,,,,,203.21036560001085,203.70261460001348,204.25065699999686,,,,,,,,,,a,1,0.5402735999668948,None,,,,p006,2026-04-14_14h15.40.871,Flanker Compatibility Task,,2026.1.1,119.70456918697413,2026-04-14 14h15.41.175104 +0800
2,diamond,cong,-10,l,4,140,140,0,l,1,0.6082932999706827,None,,,,,0,140,140,76,204.25835730001563,,,,,,,,204.25187079998432,204.74642169999424,205.36080670001684,,,,,,,,,,l,1,0.6082932999706827,None,,,,p006,2026-04-14_14h15.40.871,Flanker Compatibility Task,,2026.1.1,119.70456918697413,2026-04-14 14h15.41.175104 +0800
2,diamond,cong,10,l,2,141,141,0,l,1,0.6063632000004873,None,,,,,0,141,141,80,205.36675459996331,,,,,,,,205.3621356000076,205.85993659996893,206.4682671999908,,,,,,,,,,l,1,0.6063632000004873,None,,,,p006,2026-04-14_14h15.40.871,Flanker Compatibility Task,,2026.1.1,119.70456918697413,2026-04-14 14h15.41.175104 +0800
1,square,incong,-10,a,0,142,142,0,a,1,0.5522899000206962,None,,,,,0,142,142,12,206.47534950001864,,,,,,,,206.46957580000162,206.96660529996734,207.52632810000796,,,,,,,,,,a,1,0.5522899000206962,None,,,,p006,2026-04-14_14h15.40.871,Flanker Compatibility Task,,2026.1.1,119.70456918697413,2026-04-14 14h15.41.175104 +0800
4,square,cong,10,a,1,143,143,0,l,0,0.6606872000265867,None,,,,,0,143,143,151,207.53332230000524,,,,,,,,207.52785099996254,208.02961159998085,208.6926378000062,,,,,,,,,,l,0,0.6606872000265867,None,,,,p006,2026-04-14_14h15.40.871,Flanker Compatibility Task,,2026.1.1,119.70456918697413,2026-04-14 14h15.41.175104 +0800
3,diamond,incong,10,l,1,144,144,0,a,0,0.5424488999997266,None,,,,,0,144,144,139,208.69953679997707,,,,,,,,208.69415310001932,209.19494959997246,209.74218679999467,,,,,,,,,,a,0,0.5424488999997266,None,,,,p006,2026-04-14_14h15.40.871,Flanker Compatibility Task,,2026.1.1,119.70456918697413,2026-04-14 14h15.41.175104 +0800
1,diamond,cong,-10,l,5,145,145,0,l,1,0.7403177000232972,None,,,,,0,145,145,29,209.74916289997054,,,,,,,,209.74348120001378,210.23659629997564,210.98258810001425,,,,,,,,,,l,1,0.7403177000232972,None,,,,p006,2026-04-14_14h15.40.871,Flanker Compatibility Task,,2026.1.1,119.70456918697413,2026-04-14 14h15.41.175104 +0800
3,square,cong,10,a,1,146,146,0,a,1,0.6613557999953628,None,,,,,0,146,146,103,210.9902336,,,,,,,,210.98387319996255,211.4776219999767,212.14151459996356,,,,,,,,,,a,1,0.6613557999953628,None,,,,p006,2026-04-14_14h15.40.871,Flanker Compatibility Task,,2026.1.1,119.70456918697413,2026-04-14 14h15.41.175104 +0800
3,square,incong,-10,a,4,147,147,0,a,1,1.232175700017251,None,,,,,0,147,147,112,212.14843810000457,,,,,,,,212.14293859997997,212.6357938000001,213.87513860000763,,,,,,,,,,a,1,1.232175700017251,None,,,,p006,2026-04-14_14h15.40.871,Flanker Compatibility Task,,2026.1.1,119.70456918697413,2026-04-14 14h15.41.175104 +0800
3,diamond,cong,-10,l,2,148,148,0,l,1,0.6772941999952309,None,,,,,0,148,148,122,213.88209779997123,,,,,,,,213.87657449999824,214.3765489999787,215.05737339996267,,,,,,,,,,l,1,0.6772941999952309,None,,,,p006,2026-04-14_14h15.40.871,Flanker Compatibility Task,,2026.1.1,119.70456918697413,2026-04-14 14h15.41.175104 +0800
4,square,cong,-10,a,3,149,149,0,a,1,0.7610321000101976,None,,,,,0,149,149,147,215.06492019997677,,,,,,,,215.05890020000516,215.55204310000408,216.31543770001736,,,,,,,,,,a,1,0.7610321000101976,None,,,,p006,2026-04-14_14h15.40.871,Flanker Compatibility Task,,2026.1.1,119.70456918697413,2026-04-14 14h15.41.175104 +0800
2,diamond,incong,-10,l,3,150,150,0,l,1,0.6301019000238739,None,,,,,0,150,150,87,216.3226004000171,,,,,,,,216.31676089996472,216.81536169996252,217.4489172999747,,,,,,,,,,l,1,0.6301019000238739,None,,,,p006,2026-04-14_14h15.40.871,Flanker Compatibility Task,,2026.1.1,119.70456918697413,2026-04-14 14h15.41.175104 +0800
1,square,incong,10,a,5,151,151,0,a,1,0.6233324999921024,None,,,,,0,151,151,23,217.45528260001447,,,,,,,,217.4501980000059,217.94308789999923,218.57240239996463,,,,,,,,,,a,1,0.6233324999921024,None,,,,p006,2026-04-14_14h15.40.871,Flanker Compatibility Task,,2026.1.1,119.70456918697413,2026-04-14 14h15.41.175104 +0800
2,square,incong,-10,a,1,152,152,0,l,0,0.5559895,None,,,,,0,152,152,61,218.58032409998123,,,,,,,,218.57332089997362,219.06764049996855,219.63042070000665,,,,,,,,,,l,0,0.5559895,None,,,,p006,2026-04-14_14h15.40.871,Flanker Compatibility Task,,2026.1.1,119.70456918697413,2026-04-14 14h15.41.175104 +0800
4,square,incong,10,a,5,153,153,0,a,1,0.8974920000182465,None,,,,,0,153,153,167,219.63909730000887,,,,,,,,219.63191749999532,220.12420540000312,221.02990079997107,,,,,,,,,,a,1,0.8974920000182465,None,,,,p006,2026-04-14_14h15.40.871,Flanker Compatibility Task,,2026.1.1,119.70456918697413,2026-04-14 14h15.41.175104 +0800
3,square,incong,10,a,3,154,154,0,a,1,0.6722687999717891,None,,,,,0,154,154,117,221.03792269999394,,,,,,,,221.03137490001973,221.5256058999803,222.2048030999722,,,,,,,,,,a,1,0.6722687999717891,None,,,,p006,2026-04-14_14h15.40.871,Flanker Compatibility Task,,2026.1.1,119.70456918697413,2026-04-14 14h15.41.175104 +0800
4,diamond,cong,-10,l,3,155,155,0,l,1,1.4941631999681704,None,,,,,0,155,155,171,222.21254380000755,,,,,,,,222.20624309999403,222.7005159999826,224.19690280000214,,,,,,,,,,l,1,1.4941631999681704,None,,,,p006,2026-04-14_14h15.40.871,Flanker Compatibility Task,,2026.1.1,119.70456918697413,2026-04-14 14h15.41.175104 +0800
2,square,incong,10,a,4,156,156,0,a,1,0.5922406999743544,None,,,,,0,156,156,70,224.20374149997951,,,,,,,,224.19829410000239,224.69106490002014,225.2876684999792,,,,,,,,,,a,1,0.5922406999743544,None,,,,p006,2026-04-14_14h15.40.871,Flanker Compatibility Task,,2026.1.1,119.70456918697413,2026-04-14 14h15.41.175104 +0800
4,square,incong,10,a,0,157,157,0,a,1,1.203169499989599,None,,,,,0,157,157,162,225.29526990000159,,,,,,,,225.28907900000922,225.78295879997313,226.9875601999811,,,,,,,,,,a,1,1.203169499989599,None,,,,p006,2026-04-14_14h15.40.871,Flanker Compatibility Task,,2026.1.1,119.70456918697413,2026-04-14 14h15.41.175104 +0800
1,square,cong,10,a,0,158,158,0,a,1,0.4585361999925226,None,,,,,0,158,158,6,226.99478349997662,,,,,,,,226.98887559998548,227.48124990001088,227.94502679997822,,,,,,,,,,a,1,0.4585361999925226,None,,,,p006,2026-04-14_14h15.40.871,Flanker Compatibility Task,,2026.1.1,119.70456918697413,2026-04-14 14h15.41.175104 +0800
2,square,cong,-10,a,5,159,159,0,a,1,0.5697894999757409,None,,,,,0,159,159,53,227.9536533000064,,,,,,,,227.9462707999628,228.4397622999968,229.01137650001328,,,,,,,,,,a,1,0.5697894999757409,None,,,,p006,2026-04-14_14h15.40.871,Flanker Compatibility Task,,2026.1.1,119.70456918697413,2026-04-14 14h15.41.175104 +0800
2,diamond,cong,-10,l,0,160,160,0,l,1,0.6420331000117585,None,,,,,0,160,160,72,229.01950519997627,,,,,,,,229.01256279996596,229.50651269999798,230.15285429998767,,,,,,,,,,l,1,0.6420331000117585,None,,,,p006,2026-04-14_14h15.40.871,Flanker Compatibility Task,,2026.1.1,119.70456918697413,2026-04-14 14h15.41.175104 +0800
4,square,cong,-10,a,0,161,161,0,a,1,0.5409317000303417,None,,,,,0,161,161,144,230.1607323999633,,,,,,,,230.15495729999384,230.64619870000752,231.1878546999651,,,,,,,,,,a,1,0.5409317000303417,None,,,,p006,2026-04-14_14h15.40.871,Flanker Compatibility Task,,2026.1.1,119.70456918697413,2026-04-14 14h15.41.175104 +0800
1,diamond,incong,-10,l,1,162,162,0,l,1,0.5530202999943867,None,,,,,0,162,162,37,231.19380870001623,,,,,,,,231.1892018999788,231.6863064999925,232.24403930001426,,,,,,,,,,l,1,0.5530202999943867,None,,,,p006,2026-04-14_14h15.40.871,Flanker Compatibility Task,,2026.1.1,119.70456918697413,2026-04-14 14h15.41.175104 +0800
4,diamond,incong,-10,l,5,163,163,0,l,1,1.0649813000345603,None,,,,,0,163,163,185,232.25222159997793,,,,,,,,232.24549990001833,232.73815719998674,233.80390449997503,,,,,,,,,,l,1,1.0649813000345603,None,,,,p006,2026-04-14_14h15.40.871,Flanker Compatibility Task,,2026.1.1,119.70456918697413,2026-04-14 14h15.41.175104 +0800
2,diamond,incong,-10,l,0,164,164,0,l,1,0.7725683000171557,None,,,,,0,164,164,84,233.8098116000183,,,,,,,,233.8052338999696,234.30481050000526,235.08498119999422,,,,,,,,,,l,1,0.7725683000171557,None,,,,p006,2026-04-14_14h15.40.871,Flanker Compatibility Task,,2026.1.1,119.70456918697413,2026-04-14 14h15.41.175104 +0800
1,diamond,cong,-10,l,3,165,165,0,l,1,0.4985900999745354,None,,,,,0,165,165,27,235.0927399,,,,,,,,235.08590900001582,235.57678910001414,236.07717669999693,,,,,,,,,,l,1,0.4985900999745354,None,,,,p006,2026-04-14_14h15.40.871,Flanker Compatibility Task,,2026.1.1,119.70456918697413,2026-04-14 14h15.41.175104 +0800
4,diamond,cong,10,l,5,166,166,0,l,1,0.5854134999681264,None,,,,,0,166,166,179,236.08471389999613,,,,,,,,236.0786846000119,236.57918030000292,237.16947409999557,,,,,,,,,,l,1,0.5854134999681264,None,,,,p006,2026-04-14_14h15.40.871,Flanker Compatibility Task,,2026.1.1,119.70456918697413,2026-04-14 14h15.41.175104 +0800
1,square,cong,10,a,2,167,167,0,a,1,0.5374881000025198,None,,,,,0,167,167,8,237.17622759996448,,,,,,,,237.1707810999942,237.66976139997132,238.20953499997267,,,,,,,,,,a,1,0.5374881000025198,None,,,,p006,2026-04-14_14h15.40.871,Flanker Compatibility Task,,2026.1.1,119.70456918697413,2026-04-14 14h15.41.175104 +0800
1,diamond,incong,10,l,0,168,168,0,l,1,0.5121992000495084,None,,,,,0,168,168,42,238.21726609999314,,,,,,,,238.2107501999708,238.70280819997424,239.21812279999722,,,,,,,,,,l,1,0.5121992000495084,None,,,,p006,2026-04-14_14h15.40.871,Flanker Compatibility Task,,2026.1.1,119.70456918697413,2026-04-14 14h15.41.175104 +0800
1,diamond,cong,10,l,1,169,169,0,l,1,0.7813388999784365,None,,,,,0,169,169,31,239.2258931999677,,,,,,,,239.21929039998213,239.71890919998987,240.5015932,,,,,,,,,,l,1,0.7813388999784365,None,,,,p006,2026-04-14_14h15.40.871,Flanker Compatibility Task,,2026.1.1,119.70456918697413,2026-04-14 14h15.41.175104 +0800
3,diamond,incong,10,l,3,170,170,0,l,1,1.2756714999559335,None,,,,,0,170,170,141,240.50826169998618,,,,,,,,240.5030016999808,241.00280109996675,242.2835187999881,,,,,,,,,,l,1,1.2756714999559335,None,,,,p006,2026-04-14_14h15.40.871,Flanker Compatibility Task,,2026.1.1,119.70456918697413,2026-04-14 14h15.41.175104 +0800
2,square,incong,-10,a,3,171,171,0,a,1,0.6124433,None,,,,,0,171,171,63,242.29085089999717,,,,,,,,242.2848983000149,242.77847169997403,243.39212390000466,,,,,,,,,,a,1,0.6124433,None,,,,p006,2026-04-14_14h15.40.871,Flanker Compatibility Task,,2026.1.1,119.70456918697413,2026-04-14 14h15.41.175104 +0800
1,square,cong,10,a,3,172,172,0,a,1,0.6898439999786206,None,,,,,0,172,172,9,243.39922540000407,,,,,,,,243.39345849998062,243.88656770001398,244.58397829998285,,,,,,,,,,a,1,0.6898439999786206,None,,,,p006,2026-04-14_14h15.40.871,Flanker Compatibility Task,,2026.1.1,119.70456918697413,2026-04-14 14h15.41.175104 +0800
3,diamond,incong,-10,l,5,173,173,0,l,1,0.5813097000354901,None,,,,,0,173,173,137,244.5915215999703,,,,,,,,244.58541940001305,245.0868940000073,245.6738724,,,,,,,,,,l,1,0.5813097000354901,None,,,,p006,2026-04-14_14h15.40.871,Flanker Compatibility Task,,2026.1.1,119.70456918697413,2026-04-14 14h15.41.175104 +0800
4,diamond,cong,-10,l,1,174,174,0,l,1,1.1238937000161968,None,,,,,0,174,174,169,245.68155219999608,,,,,,,,245.67490350001026,246.17023990000598,247.30028799996944,,,,,,,,,,l,1,1.1238937000161968,None,,,,p006,2026-04-14_14h15.40.871,Flanker Compatibility Task,,2026.1.1,119.70456918697413,2026-04-14 14h15.41.175104 +0800
3,diamond,cong,10,l,3,175,175,0,l,1,0.5293885999708436,None,,,,,0,175,175,129,247.30770559998928,,,,,,,,247.30170890002046,247.8030379,248.33338959998218,,,,,,,,,,l,1,0.5293885999708436,None,,,,p006,2026-04-14_14h15.40.871,Flanker Compatibility Task,,2026.1.1,119.70456918697413,2026-04-14 14h15.41.175104 +0800
1,square,incong,10,a,1,176,176,0,a,1,0.6087946000043303,None,,,,,0,176,176,19,248.3395417999709,,,,,,,,248.33468089997768,248.83516839996446,249.4487003000104,,,,,,,,,,a,1,0.6087946000043303,None,,,,p006,2026-04-14_14h15.40.871,Flanker Compatibility Task,,2026.1.1,119.70456918697413,2026-04-14 14h15.41.175104 +0800
4,square,cong,10,a,2,177,177,0,a,1,0.6671463999664411,None,,,,,0,177,177,152,249.45674409996718,,,,,,,,249.4502114999923,249.9422818,250.61553929996444,,,,,,,,,,a,1,0.6671463999664411,None,,,,p006,2026-04-14_14h15.40.871,Flanker Compatibility Task,,2026.1.1,119.70456918697413,2026-04-14 14h15.41.175104 +0800
2,square,cong,-10,a,1,178,178,0,a,1,0.4727283999673091,None,,,,,0,178,178,49,250.62281769997207,,,,,,,,250.61676070000976,251.11025550001068,251.5897500999854,,,,,,,,,,a,1,0.4727283999673091,None,,,,p006,2026-04-14_14h15.40.871,Flanker Compatibility Task,,2026.1.1,119.70456918697413,2026-04-14 14h15.41.175104 +0800
1,square,incong,-10,a,5,179,179,0,a,1,0.5214704,None,,,,,0,179,179,17,251.59755090001272,,,,,,,,251.59087129996624,252.08411339996383,252.6067413999699,,,,,,,,,,a,1,0.5214704,None,,,,p006,2026-04-14_14h15.40.871,Flanker Compatibility Task,,2026.1.1,119.70456918697413,2026-04-14 14h15.41.175104 +0800
3,square,incong,-10,a,0,180,180,0,a,1,0.4682248999597505,None,,,,,0,180,180,108,252.6141759,,,,,,,,252.60813840001356,253.10097219998715,253.57289489998948,,,,,,,,,,a,1,0.4682248999597505,None,,,,p006,2026-04-14_14h15.40.871,Flanker Compatibility Task,,2026.1.1,119.70456918697413,2026-04-14 14h15.41.175104 +0800
2,diamond,incong,10,l,2,181,181,0,l,1,0.42557889997260645,None,,,,,0,181,181,92,253.5805881000124,,,,,,,,253.57405489997473,254.07306929997867,254.49941799999215,,,,,,,,,,l,1,0.42557889997260645,None,,,,p006,2026-04-14_14h15.40.871,Flanker Compatibility Task,,2026.1.1,119.70456918697413,2026-04-14 14h15.41.175104 +0800
2,square,incong,-10,a,5,182,182,0,a,1,0.5044140000245534,None,,,,,0,182,182,65,254.5059886999661,,,,,,,,254.50080959999468,255.00140070001362,255.50691300001927,,,,,,,,,,a,1,0.5044140000245534,None,,,,p006,2026-04-14_14h15.40.871,Flanker Compatibility Task,,2026.1.1,119.70456918697413,2026-04-14 14h15.41.175104 +0800
1,square,cong,10,a,1,183,183,0,a,1,0.5331110000261106,None,,,,,0,183,183,7,255.5133437999757,,,,,,,,255.50814399996307,256.0067654000013,256.5467184999725,,,,,,,,,,a,1,0.5331110000261106,None,,,,p006,2026-04-14_14h15.40.871,Flanker Compatibility Task,,2026.1.1,119.70456918697413,2026-04-14 14h15.41.175104 +0800
4,square,cong,-10,a,1,184,184,0,a,1,0.9279701000195928,None,,,,,0,184,184,145,256.55401369999163,,,,,,,,256.5478931000107,257.04194099997403,257.9728011999978,,,,,,,,,,a,1,0.9279701000195928,None,,,,p006,2026-04-14_14h15.40.871,Flanker Compatibility Task,,2026.1.1,119.70456918697413,2026-04-14 14h15.41.175104 +0800
1,diamond,cong,-10,l,1,185,185,0,l,1,0.6515985000296496,None,,,,,0,185,185,25,257.97934859996894,,,,,,,,257.9741889999714,258.47234229999594,259.1296376999817,,,,,,,,,,l,1,0.6515985000296496,None,,,,p006,2026-04-14_14h15.40.871,Flanker Compatibility Task,,2026.1.1,119.70456918697413,2026-04-14 14h15.41.175104 +0800
2,diamond,incong,-10,l,5,186,186,0,l,1,0.7856244000140578,None,,,,,0,186,186,89,259.13731939997524,,,,,,,,259.1309186000144,259.6229711,260.4138014999917,,,,,,,,,,l,1,0.7856244000140578,None,,,,p006,2026-04-14_14h15.40.871,Flanker Compatibility Task,,2026.1.1,119.70456918697413,2026-04-14 14h15.41.175104 +0800
4,diamond,incong,10,l,4,187,187,0,l,1,1.1937881000339985,None,,,,,0,187,187,190,260.41977889998816,,,,,,,,260.4148986999644,260.9088705999893,262.10410310002044,,,,,,,,,,l,1,1.1937881000339985,None,,,,p006,2026-04-14_14h15.40.871,Flanker Compatibility Task,,2026.1.1,119.70456918697413,2026-04-14 14h15.41.175104 +0800
2,diamond,cong,10,l,0,188,188,0,l,1,0.6650544,None,,,,,0,188,188,78,262.1120341999922,,,,,,,,262.1053525999887,262.5986479999847,263.26963330002036,,,,,,,,,,l,1,0.6650544,None,,,,p006,2026-04-14_14h15.40.871,Flanker Compatibility Task,,2026.1.1,119.70456918697413,2026-04-14 14h15.41.175104 +0800
1,diamond,cong,-10,l,2,189,189,0,l,1,0.5075136999948882,None,,,,,0,189,189,26,263.27726649999386,,,,,,,,263.2708257000195,263.7640300000203,264.27849489997607,,,,,,,,,,l,1,0.5075136999948882,None,,,,p006,2026-04-14_14h15.40.871,Flanker Compatibility Task,,2026.1.1,119.70456918697413,2026-04-14 14h15.41.175104 +0800
2,diamond,incong,10,l,5,190,190,0,l,1,0.6993086,None,,,,,0,190,190,95,264.2869576999801,,,,,,,,264.2797219000058,264.77282700000796,265.47803190001287,,,,,,,,,,l,1,0.6993086,None,,,,p006,2026-04-14_14h15.40.871,Flanker Compatibility Task,,2026.1.1,119.70456918697413,2026-04-14 14h15.41.175104 +0800
3,diamond,incong,-10,l,2,191,191,0,l,1,0.6457493999623694,None,,,,,0,191,191,134,265.48579479998443,,,,,,,,265.4793929000152,265.9734877999872,266.6270566000021,,,,,,,,,,l,1,0.6457493999623694,None,,,,p006,2026-04-14_14h15.40.871,Flanker Compatibility Task,,2026.1.1,119.70456918697413,2026-04-14 14h15.41.175104 +0800
,,,,,,,,,,,,,,,,,,,,,,,,,,,,,,,,,,,,,,,,,,,,,266.6272470999975,276.62576029996853,None,p006,2026-04-14_14h15.40.871,Flanker Compatibility Task,,2026.1.1,119.70456918697413,2026-04-14 14h15.41.175104 +0800
