difficulty,target_type,condition,dist_pos_x,ans,target_idx,thisN,thisTrialN,thisRepN,Anskey.keys,Anskey.corr,Anskey.rt,Anskey.duration,Prac_Loop.thisRepN,Prac_Loop.thisTrialN,Prac_Loop.thisN,Prac_Loop.thisIndex,Trials_Loop.thisRepN,Trials_Loop.thisTrialN,Trials_Loop.thisN,Trials_Loop.thisIndex,thisRow.t,notes,piloting,Intro.started,Intro.stopped,Intro_keyresp.keys,Intro_keyresp.rt,Intro_keyresp.duration,Trial_Routine.started,Anskey.started,Trial_Routine.stopped,Prac_Loop.Anskey.keys,Prac_Loop.Anskey.corr,Prac_Loop.Anskey.rt,Prac_Loop.Anskey.duration,Ready.started,Ready.stopped,Ready_keyresp.keys,Ready_keyresp.rt,Ready_keyresp.duration,Trials_Loop.Anskey.keys,Trials_Loop.Anskey.corr,Trials_Loop.Anskey.rt,Trials_Loop.Anskey.duration,ThankYou.started,ThankYou.stopped,Thanks_keyresp.keys,participant,date,expName,expVersion,psychopyVersion,frameRate,expStart
,,,,,,,,,,,,,,,,,,,,,,,FALSE,0.00805,1.7682008,space,1.2644483,None,,,,,,,,,,,,,,,,,,,,p006,2026-04-14_14h15.40.871,Flanker Compatibility Task,,2026.1.1,119.7045692,2026-04-14 14h15.41.175104 +0800
2,square,incong,-10,a,2,0,0,0,a,1,1.8281611,None,0,0,0,5,,,,,1.7944668,,,,,,,,1.7840743,2.2636394,4.0997371,a,1,1.8281611,None,,,,,,,,,,,,,p006,2026-04-14_14h15.40.871,Flanker Compatibility Task,,2026.1.1,119.7045692,2026-04-14 14h15.41.175104 +0800
2,square,cong,10,a,5,1,1,0,a,1,1.1686559,None,0,1,1,4,,,,,4.1077529,,,,,,,,4.1009212,4.5976856,5.7672275,a,1,1.1686559,None,,,,,,,,,,,,,p006,2026-04-14_14h15.40.871,Flanker Compatibility Task,,2026.1.1,119.7045692,2026-04-14 14h15.41.175104 +0800
3,square,cong,-10,a,1,2,2,0,a,1,0.8932749,None,0,2,2,8,,,,,5.7744154,,,,,,,,5.7684681,6.260765,7.1585816,a,1,0.8932749,None,,,,,,,,,,,,,p006,2026-04-14_14h15.40.871,Flanker Compatibility Task,,2026.1.1,119.7045692,2026-04-14 14h15.41.175104 +0800
4,square,incong,-10,a,1,3,3,0,a,1,1.3127337,None,0,3,3,13,,,,,7.166039,,,,,,,,7.1600296,7.6539564,8.9741814,a,1,1.3127337,None,,,,,,,,,,,,,p006,2026-04-14_14h15.40.871,Flanker Compatibility Task,,2026.1.1,119.7045692,2026-04-14 14h15.41.175104 +0800
3,diamond,incong,-10,l,4,4,4,0,l,1,0.8389753,None,0,4,4,11,,,,,8.9819407,,,,,,,,8.9757185,9.4707288,10.3182796,l,1,0.8389753,None,,,,,,,,,,,,,p006,2026-04-14_14h15.40.871,Flanker Compatibility Task,,2026.1.1,119.7045692,2026-04-14 14h15.41.175104 +0800
2,diamond,cong,-10,l,3,5,5,0,l,1,0.7581227,None,0,5,5,6,,,,,10.3235218,,,,,,,,10.3194906,10.8162604,11.5812352,l,1,0.7581227,None,,,,,,,,,,,,,p006,2026-04-14_14h15.40.871,Flanker Compatibility Task,,2026.1.1,119.7045692,2026-04-14 14h15.41.175104 +0800
4,square,cong,10,a,5,6,6,0,a,1,1.0027175,None,0,6,6,12,,,,,11.5889706,,,,,,,,11.5827425,12.0776593,13.0818292,a,1,1.0027175,None,,,,,,,,,,,,,p006,2026-04-14_14h15.40.871,Flanker Compatibility Task,,2026.1.1,119.7045692,2026-04-14 14h15.41.175104 +0800
1,diamond,incong,-10,l,5,7,7,0,l,1,0.9498114,None,0,7,7,3,,,,,13.0892263,,,,,,,,13.0830767,13.5829123,14.5395624,l,1,0.9498114,None,,,,,,,,,,,,,p006,2026-04-14_14h15.40.871,Flanker Compatibility Task,,2026.1.1,119.7045692,2026-04-14 14h15.41.175104 +0800
1,square,cong,-10,a,1,8,8,0,a,1,0.7329731,None,0,8,8,0,,,,,14.5472301,,,,,,,,14.5407515,15.0404375,15.7743765,a,1,0.7329731,None,,,,,,,,,,,,,p006,2026-04-14_14h15.40.871,Flanker Compatibility Task,,2026.1.1,119.7045692,2026-04-14 14h15.41.175104 +0800
3,diamond,cong,10,l,1,9,9,0,l,1,0.9723882,None,0,9,9,10,,,,,15.7819375,,,,,,,,15.775909,16.276864,17.2549868,l,1,0.9723882,None,,,,,,,,,,,,,p006,2026-04-14_14h15.40.871,Flanker Compatibility Task,,2026.1.1,119.7045692,2026-04-14 14h15.41.175104 +0800
1,square,incong,10,a,3,10,10,0,a,1,0.6584953,None,0,10,10,1,,,,,17.2624526,,,,,,,,17.2558946,17.7513338,18.414436,a,1,0.6584953,None,,,,,,,,,,,,,p006,2026-04-14_14h15.40.871,Flanker Compatibility Task,,2026.1.1,119.7045692,2026-04-14 14h15.41.175104 +0800
3,square,incong,10,a,5,11,11,0,a,1,1.0063147,None,0,11,11,9,,,,,18.421972,,,,,,,,18.4158819,18.9149539,19.9221151,a,1,1.0063147,None,,,,,,,,,,,,,p006,2026-04-14_14h15.40.871,Flanker Compatibility Task,,2026.1.1,119.7045692,2026-04-14 14h15.41.175104 +0800
4,diamond,cong,-10,l,4,12,12,0,l,1,2.3573321,None,0,12,12,14,,,,,19.9292262,,,,,,,,19.9236674,20.4240984,22.7838281,l,1,2.3573321,None,,,,,,,,,,,,,p006,2026-04-14_14h15.40.871,Flanker Compatibility Task,,2026.1.1,119.7045692,2026-04-14 14h15.41.175104 +0800
2,diamond,incong,10,l,0,13,13,0,a,0,1.1653022,None,0,13,13,7,,,,,22.7908573,,,,,,,,22.785196,23.2849682,24.4572038,a,0,1.1653022,None,,,,,,,,,,,,,p006,2026-04-14_14h15.40.871,Flanker Compatibility Task,,2026.1.1,119.7045692,2026-04-14 14h15.41.175104 +0800
1,diamond,cong,10,l,0,14,14,0,l,1,0.8415502,None,0,14,14,2,,,,,24.4657815,,,,,,,,24.4582946,24.9519286,25.7989419,l,1,0.8415502,None,,,,,,,,,,,,,p006,2026-04-14_14h15.40.871,Flanker Compatibility Task,,2026.1.1,119.7045692,2026-04-14 14h15.41.175104 +0800
4,diamond,incong,10,l,2,15,15,0,l,1,1.2223273,None,0,15,15,15,,,,,25.8068945,,,,,,,,25.800396,26.3006512,27.5236882,l,1,1.2223273,None,,,,,,,,,,,,,p006,2026-04-14_14h15.40.871,Flanker Compatibility Task,,2026.1.1,119.7045692,2026-04-14 14h15.41.175104 +0800
,,,,,,,,,,,,,,,,,,,,,,,,,,,,,,,,,,,,27.5238936,36.8792631,space,8.8585384,None,,,,,,,,p006,2026-04-14_14h15.40.871,Flanker Compatibility Task,,2026.1.1,119.7045692,2026-04-14 14h15.41.175104 +0800
2,diamond,cong,-10,l,5,0,0,0,l,1,0.644818,None,,,,,0,0,0,77,36.9310164,,,,,,,,36.9270177,37.3779767,38.0254012,,,,,,,,,,l,1,0.644818,None,,,,p006,2026-04-14_14h15.40.871,Flanker Compatibility Task,,2026.1.1,119.7045692,2026-04-14 14h15.41.175104 +0800
4,square,cong,10,a,3,1,1,0,a,1,0.9946971,None,,,,,0,1,1,153,38.0331396,,,,,,,,38.0269053,38.5202587,39.518012,,,,,,,,,,a,1,0.9946971,None,,,,p006,2026-04-14_14h15.40.871,Flanker Compatibility Task,,2026.1.1,119.7045692,2026-04-14 14h15.41.175104 +0800
2,square,cong,-10,a,0,2,2,0,a,1,0.7132533,None,,,,,0,2,2,48,39.5246353,,,,,,,,39.5192005,40.0126285,40.7330223,,,,,,,,,,a,1,0.7132533,None,,,,p006,2026-04-14_14h15.40.871,Flanker Compatibility Task,,2026.1.1,119.7045692,2026-04-14 14h15.41.175104 +0800
3,diamond,cong,-10,l,4,3,3,0,l,1,0.769276,None,,,,,0,3,3,124,40.7419798,,,,,,,,40.7340376,41.2294192,41.9996493,,,,,,,,,,l,1,0.769276,None,,,,p006,2026-04-14_14h15.40.871,Flanker Compatibility Task,,2026.1.1,119.7045692,2026-04-14 14h15.41.175104 +0800
2,diamond,cong,10,l,4,4,4,0,l,1,0.6839949,None,,,,,0,4,4,82,42.0073169,,,,,,,,42.0007921,42.4951289,43.1828462,,,,,,,,,,l,1,0.6839949,None,,,,p006,2026-04-14_14h15.40.871,Flanker Compatibility Task,,2026.1.1,119.7045692,2026-04-14 14h15.41.175104 +0800
4,square,incong,-10,a,2,5,5,0,a,1,0.6756855,None,,,,,0,5,5,158,43.190111,,,,,,,,43.1841209,43.6788221,44.3586594,,,,,,,,,,a,1,0.6756855,None,,,,p006,2026-04-14_14h15.40.871,Flanker Compatibility Task,,2026.1.1,119.7045692,2026-04-14 14h15.41.175104 +0800
3,square,cong,10,a,4,6,6,0,a,1,0.6796626,None,,,,,0,6,6,106,44.3647237,,,,,,,,44.3601671,44.8609954,45.5417533,,,,,,,,,,a,1,0.6796626,None,,,,p006,2026-04-14_14h15.40.871,Flanker Compatibility Task,,2026.1.1,119.7045692,2026-04-14 14h15.41.175104 +0800
3,square,incong,10,a,4,7,7,0,a,1,0.7412147,None,,,,,0,7,7,118,45.5478872,,,,,,,,45.5432558,46.0445363,46.7908953,,,,,,,,,,a,1,0.7412147,None,,,,p006,2026-04-14_14h15.40.871,Flanker Compatibility Task,,2026.1.1,119.7045692,2026-04-14 14h15.41.175104 +0800
3,diamond,cong,10,l,5,8,8,0,l,1,0.6902389,None,,,,,0,8,8,131,46.7982674,,,,,,,,46.7922591,47.2949953,47.9896989,,,,,,,,,,l,1,0.6902389,None,,,,p006,2026-04-14_14h15.40.871,Flanker Compatibility Task,,2026.1.1,119.7045692,2026-04-14 14h15.41.175104 +0800
4,diamond,incong,-10,l,2,9,9,0,l,1,0.7709683,None,,,,,0,9,9,182,47.9979699,,,,,,,,47.9907597,48.4840857,49.2564491,,,,,,,,,,l,1,0.7709683,None,,,,p006,2026-04-14_14h15.40.871,Flanker Compatibility Task,,2026.1.1,119.7045692,2026-04-14 14h15.41.175104 +0800
4,square,cong,-10,a,4,10,10,0,a,1,0.6313684,None,,,,,0,10,10,148,49.2640866,,,,,,,,49.2578845,49.7597508,50.3974074,,,,,,,,,,a,1,0.6313684,None,,,,p006,2026-04-14_14h15.40.871,Flanker Compatibility Task,,2026.1.1,119.7045692,2026-04-14 14h15.41.175104 +0800
3,diamond,incong,10,l,5,11,11,0,l,1,0.6874092,None,,,,,0,11,11,143,50.404897,,,,,,,,50.3984194,50.8887155,51.5802579,,,,,,,,,,l,1,0.6874092,None,,,,p006,2026-04-14_14h15.40.871,Flanker Compatibility Task,,2026.1.1,119.7045692,2026-04-14 14h15.41.175104 +0800
4,square,cong,10,a,4,12,12,0,a,1,0.6734718,None,,,,,0,12,12,154,51.5881461,,,,,,,,51.5813011,52.0782282,52.7550498,,,,,,,,,,a,1,0.6734718,None,,,,p006,2026-04-14_14h15.40.871,Flanker Compatibility Task,,2026.1.1,119.7045692,2026-04-14 14h15.41.175104 +0800
3,square,incong,10,a,5,13,13,0,a,1,0.6723444,None,,,,,0,13,13,119,52.7640797,,,,,,,,52.756051,53.2499411,53.9298307,,,,,,,,,,a,1,0.6723444,None,,,,p006,2026-04-14_14h15.40.871,Flanker Compatibility Task,,2026.1.1,119.7045692,2026-04-14 14h15.41.175104 +0800
4,diamond,incong,-10,l,4,14,14,0,l,1,0.6145999,None,,,,,0,14,14,184,53.9381621,,,,,,,,53.9311655,54.422042,55.0383392,,,,,,,,,,l,1,0.6145999,None,,,,p006,2026-04-14_14h15.40.871,Flanker Compatibility Task,,2026.1.1,119.7045692,2026-04-14 14h15.41.175104 +0800
2,square,cong,10,a,3,15,15,0,a,1,0.5821265,None,,,,,0,15,15,57,55.0456448,,,,,,,,55.0395767,55.533372,56.1215363,,,,,,,,,,a,1,0.5821265,None,,,,p006,2026-04-14_14h15.40.871,Flanker Compatibility Task,,2026.1.1,119.7045692,2026-04-14 14h15.41.175104 +0800
2,square,incong,10,a,0,16,16,0,a,1,0.5963325,None,,,,,0,16,16,66,56.1288582,,,,,,,,56.1227782,56.6157473,57.2221,,,,,,,,,,a,1,0.5963325,None,,,,p006,2026-04-14_14h15.40.871,Flanker Compatibility Task,,2026.1.1,119.7045692,2026-04-14 14h15.41.175104 +0800
2,square,cong,10,a,0,17,17,0,a,1,0.5930872,None,,,,,0,17,17,54,57.229012,,,,,,,,57.2233134,57.7221316,58.3207595,,,,,,,,,,a,1,0.5930872,None,,,,p006,2026-04-14_14h15.40.871,Flanker Compatibility Task,,2026.1.1,119.7045692,2026-04-14 14h15.41.175104 +0800
1,square,incong,-10,a,2,18,18,0,a,1,0.7472202,None,,,,,0,18,18,14,58.3283262,,,,,,,,58.321913,58.8168315,59.5711044,,,,,,,,,,a,1,0.7472202,None,,,,p006,2026-04-14_14h15.40.871,Flanker Compatibility Task,,2026.1.1,119.7045692,2026-04-14 14h15.41.175104 +0800
4,square,cong,10,a,0,19,19,0,a,1,1.1274739,None,,,,,0,19,19,150,59.5785585,,,,,,,,59.5726762,60.0664839,61.2032371,,,,,,,,,,a,1,1.1274739,None,,,,p006,2026-04-14_14h15.40.871,Flanker Compatibility Task,,2026.1.1,119.7045692,2026-04-14 14h15.41.175104 +0800
4,square,incong,10,a,3,20,20,0,a,1,0.8229194,None,,,,,0,20,20,165,61.2106593,,,,,,,,61.2046949,61.6994378,62.5280471,,,,,,,,,,a,1,0.8229194,None,,,,p006,2026-04-14_14h15.40.871,Flanker Compatibility Task,,2026.1.1,119.7045692,2026-04-14 14h15.41.175104 +0800
3,square,cong,-10,a,5,21,21,0,a,1,0.7371394,None,,,,,0,21,21,101,62.5360633,,,,,,,,62.5295465,63.0248049,63.7694532,,,,,,,,,,a,1,0.7371394,None,,,,p006,2026-04-14_14h15.40.871,Flanker Compatibility Task,,2026.1.1,119.7045692,2026-04-14 14h15.41.175104 +0800
3,square,cong,-10,a,0,22,22,0,a,1,0.6174331,None,,,,,0,22,22,96,63.7770336,,,,,,,,63.7704295,64.2628497,64.8855902,,,,,,,,,,a,1,0.6174331,None,,,,p006,2026-04-14_14h15.40.871,Flanker Compatibility Task,,2026.1.1,119.7045692,2026-04-14 14h15.41.175104 +0800
4,square,incong,-10,a,0,23,23,0,a,1,0.5587596,None,,,,,0,23,23,156,64.8931636,,,,,,,,64.8870672,65.3819035,65.9450195,,,,,,,,,,a,1,0.5587596,None,,,,p006,2026-04-14_14h15.40.871,Flanker Compatibility Task,,2026.1.1,119.7045692,2026-04-14 14h15.41.175104 +0800
4,diamond,cong,10,l,3,24,24,0,l,1,0.6278537,None,,,,,0,24,24,177,65.9510992,,,,,,,,65.9465745,66.4499004,67.085782,,,,,,,,,,l,1,0.6278537,None,,,,p006,2026-04-14_14h15.40.871,Flanker Compatibility Task,,2026.1.1,119.7045692,2026-04-14 14h15.41.175104 +0800
1,diamond,cong,10,l,5,25,25,0,l,1,0.4922805,None,,,,,0,25,25,35,67.0930335,,,,,,,,67.086849,67.5799884,68.0769599,,,,,,,,,,l,1,0.4922805,None,,,,p006,2026-04-14_14h15.40.871,Flanker Compatibility Task,,2026.1.1,119.7045692,2026-04-14 14h15.41.175104 +0800
2,square,incong,10,a,5,26,26,0,a,1,0.5974406,None,,,,,0,26,26,71,68.0840316,,,,,,,,68.0783327,68.5782732,69.1843762,,,,,,,,,,a,1,0.5974406,None,,,,p006,2026-04-14_14h15.40.871,Flanker Compatibility Task,,2026.1.1,119.7045692,2026-04-14 14h15.41.175104 +0800
3,square,incong,10,a,2,27,27,0,a,1,0.8264491,None,,,,,0,27,27,116,69.1919373,,,,,,,,69.1857876,69.6777799,70.5098081,,,,,,,,,,a,1,0.8264491,None,,,,p006,2026-04-14_14h15.40.871,Flanker Compatibility Task,,2026.1.1,119.7045692,2026-04-14 14h15.41.175104 +0800
3,square,cong,-10,a,4,28,28,0,a,1,0.7687927,None,,,,,0,28,28,100,70.5167849,,,,,,,,70.5108871,71.010696,71.7838913,,,,,,,,,,a,1,0.7687927,None,,,,p006,2026-04-14_14h15.40.871,Flanker Compatibility Task,,2026.1.1,119.7045692,2026-04-14 14h15.41.175104 +0800
1,diamond,incong,-10,l,0,29,29,0,l,1,0.5770502,None,,,,,0,29,29,36,71.7916188,,,,,,,,71.7848241,72.2787427,72.8586201,,,,,,,,,,l,1,0.5770502,None,,,,p006,2026-04-14_14h15.40.871,Flanker Compatibility Task,,2026.1.1,119.7045692,2026-04-14 14h15.41.175104 +0800
4,diamond,incong,10,l,1,30,30,0,l,1,0.9928369,None,,,,,0,30,30,187,72.8663921,,,,,,,,72.8600901,73.3550029,74.3502346,,,,,,,,,,l,1,0.9928369,None,,,,p006,2026-04-14_14h15.40.871,Flanker Compatibility Task,,2026.1.1,119.7045692,2026-04-14 14h15.41.175104 +0800
4,diamond,cong,10,l,4,31,31,0,l,1,0.78946,None,,,,,0,31,31,178,74.3574685,,,,,,,,74.351511,74.8524081,75.6424359,,,,,,,,,,l,1,0.78946,None,,,,p006,2026-04-14_14h15.40.871,Flanker Compatibility Task,,2026.1.1,119.7045692,2026-04-14 14h15.41.175104 +0800
3,square,cong,10,a,2,32,32,0,a,1,0.6473871,None,,,,,0,32,32,104,75.6488655,,,,,,,,75.6438161,76.1452107,76.7992265,,,,,,,,,,a,1,0.6473871,None,,,,p006,2026-04-14_14h15.40.871,Flanker Compatibility Task,,2026.1.1,119.7045692,2026-04-14 14h15.41.175104 +0800
1,square,cong,-10,a,3,33,33,0,a,1,0.6096388,None,,,,,0,33,33,3,76.8069971,,,,,,,,76.8003857,77.2948669,77.9070521,,,,,,,,,,a,1,0.6096388,None,,,,p006,2026-04-14_14h15.40.871,Flanker Compatibility Task,,2026.1.1,119.7045692,2026-04-14 14h15.41.175104 +0800
1,diamond,incong,-10,l,3,34,34,0,l,1,0.6048435,None,,,,,0,34,34,39,77.914907,,,,,,,,77.9082378,78.4006416,79.0072534,,,,,,,,,,l,1,0.6048435,None,,,,p006,2026-04-14_14h15.40.871,Flanker Compatibility Task,,2026.1.1,119.7045692,2026-04-14 14h15.41.175104 +0800
4,diamond,cong,-10,l,4,35,35,0,l,1,0.7363348,None,,,,,0,35,35,172,79.0145394,,,,,,,,79.008602,79.4990582,80.2397891,,,,,,,,,,l,1,0.7363348,None,,,,p006,2026-04-14_14h15.40.871,Flanker Compatibility Task,,2026.1.1,119.7045692,2026-04-14 14h15.41.175104 +0800
1,diamond,incong,10,l,2,36,36,0,l,1,0.6603134,None,,,,,0,36,36,44,80.2475158,,,,,,,,80.2407026,80.7360363,81.3991145,,,,,,,,,,l,1,0.6603134,None,,,,p006,2026-04-14_14h15.40.871,Flanker Compatibility Task,,2026.1.1,119.7045692,2026-04-14 14h15.41.175104 +0800
3,diamond,incong,10,l,4,37,37,0,l,1,0.8097992,None,,,,,0,37,37,142,81.4059027,,,,,,,,81.4004539,81.8954227,82.7066532,,,,,,,,,,l,1,0.8097992,None,,,,p006,2026-04-14_14h15.40.871,Flanker Compatibility Task,,2026.1.1,119.7045692,2026-04-14 14h15.41.175104 +0800
3,diamond,incong,10,l,2,38,38,0,l,1,0.9852206,None,,,,,0,38,38,140,82.7139657,,,,,,,,82.7081028,83.2022099,84.1889254,,,,,,,,,,l,1,0.9852206,None,,,,p006,2026-04-14_14h15.40.871,Flanker Compatibility Task,,2026.1.1,119.7045692,2026-04-14 14h15.41.175104 +0800
1,diamond,cong,10,l,2,39,39,0,l,1,0.498757,None,,,,,0,39,39,32,84.1967063,,,,,,,,84.1901108,84.6817096,85.1812112,,,,,,,,,,l,1,0.498757,None,,,,p006,2026-04-14_14h15.40.871,Flanker Compatibility Task,,2026.1.1,119.7045692,2026-04-14 14h15.41.175104 +0800
4,diamond,incong,10,l,0,40,40,0,l,1,0.8816122,None,,,,,0,40,40,186,85.1882485,,,,,,,,85.1826493,85.6767469,86.5645111,,,,,,,,,,l,1,0.8816122,None,,,,p006,2026-04-14_14h15.40.871,Flanker Compatibility Task,,2026.1.1,119.7045692,2026-04-14 14h15.41.175104 +0800
3,diamond,incong,-10,l,3,41,41,0,l,1,0.9137779,None,,,,,0,41,41,135,86.5714007,,,,,,,,86.5665826,87.0678522,87.9882085,,,,,,,,,,l,1,0.9137779,None,,,,p006,2026-04-14_14h15.40.871,Flanker Compatibility Task,,2026.1.1,119.7045692,2026-04-14 14h15.41.175104 +0800
1,square,cong,-10,a,2,42,42,0,a,1,0.5752094,None,,,,,0,42,42,2,87.9971359,,,,,,,,87.989407,88.4831445,89.0639388,,,,,,,,,,a,1,0.5752094,None,,,,p006,2026-04-14_14h15.40.871,Flanker Compatibility Task,,2026.1.1,119.7045692,2026-04-14 14h15.41.175104 +0800
4,diamond,incong,-10,l,0,43,43,0,l,1,0.7999345,None,,,,,0,43,43,180,89.0705061,,,,,,,,89.0653813,89.5648403,90.3716836,,,,,,,,,,l,1,0.7999345,None,,,,p006,2026-04-14_14h15.40.871,Flanker Compatibility Task,,2026.1.1,119.7045692,2026-04-14 14h15.41.175104 +0800
2,diamond,incong,10,l,4,44,44,0,l,1,0.5930912,None,,,,,0,44,44,94,90.3796058,,,,,,,,90.3729208,90.8655912,91.4626776,,,,,,,,,,l,1,0.5930912,None,,,,p006,2026-04-14_14h15.40.871,Flanker Compatibility Task,,2026.1.1,119.7045692,2026-04-14 14h15.41.175104 +0800
4,square,cong,-10,a,2,45,45,0,a,1,0.712761,None,,,,,0,45,45,146,91.4703182,,,,,,,,91.4640937,91.963974,92.6791701,,,,,,,,,,a,1,0.712761,None,,,,p006,2026-04-14_14h15.40.871,Flanker Compatibility Task,,2026.1.1,119.7045692,2026-04-14 14h15.41.175104 +0800
3,diamond,cong,-10,l,5,46,46,0,l,1,0.5894777,None,,,,,0,46,46,125,92.6864343,,,,,,,,92.6805281,93.1740102,93.7699261,,,,,,,,,,l,1,0.5894777,None,,,,p006,2026-04-14_14h15.40.871,Flanker Compatibility Task,,2026.1.1,119.7045692,2026-04-14 14h15.41.175104 +0800
1,square,incong,10,a,2,47,47,0,a,1,0.7081292,None,,,,,0,47,47,20,93.779123,,,,,,,,93.771146,94.2656084,94.9785483,,,,,,,,,,a,1,0.7081292,None,,,,p006,2026-04-14_14h15.40.871,Flanker Compatibility Task,,2026.1.1,119.7045692,2026-04-14 14h15.41.175104 +0800
4,diamond,incong,10,l,2,48,48,0,l,1,0.7397912,None,,,,,0,48,48,188,94.9858114,,,,,,,,94.9799833,95.4805227,96.2277899,,,,,,,,,,l,1,0.7397912,None,,,,p006,2026-04-14_14h15.40.871,Flanker Compatibility Task,,2026.1.1,119.7045692,2026-04-14 14h15.41.175104 +0800
1,square,cong,-10,a,5,49,49,0,a,1,0.6033419,None,,,,,0,49,49,5,96.235403,,,,,,,,96.229005,96.7190754,97.328581,,,,,,,,,,a,1,0.6033419,None,,,,p006,2026-04-14_14h15.40.871,Flanker Compatibility Task,,2026.1.1,119.7045692,2026-04-14 14h15.41.175104 +0800
1,diamond,incong,10,l,4,50,50,0,l,1,0.558234,None,,,,,0,50,50,46,97.3361264,,,,,,,,97.3297921,97.8307666,98.3948495,,,,,,,,,,l,1,0.558234,None,,,,p006,2026-04-14_14h15.40.871,Flanker Compatibility Task,,2026.1.1,119.7045692,2026-04-14 14h15.41.175104 +0800
3,diamond,cong,10,l,2,51,51,0,l,1,0.9493559,None,,,,,0,51,51,128,98.4015492,,,,,,,,98.3962316,98.8973807,99.8519894,,,,,,,,,,l,1,0.9493559,None,,,,p006,2026-04-14_14h15.40.871,Flanker Compatibility Task,,2026.1.1,119.7045692,2026-04-14 14h15.41.175104 +0800
4,diamond,cong,-10,l,2,52,52,0,l,1,0.5745824,None,,,,,0,52,52,170,99.8593232,,,,,,,,99.853129,100.3464975,100.9270484,,,,,,,,,,l,1,0.5745824,None,,,,p006,2026-04-14_14h15.40.871,Flanker Compatibility Task,,2026.1.1,119.7045692,2026-04-14 14h15.41.175104 +0800
2,diamond,cong,-10,l,3,53,53,0,a,0,0.5843435,None,,,,,0,53,53,75,100.9341947,,,,,,,,100.9284539,101.4214973,102.0116753,,,,,,,,,,a,0,0.5843435,None,,,,p006,2026-04-14_14h15.40.871,Flanker Compatibility Task,,2026.1.1,119.7045692,2026-04-14 14h15.41.175104 +0800
3,diamond,cong,-10,l,1,54,54,0,l,1,0.9966448,None,,,,,0,54,54,121,102.0171555,,,,,,,,102.012747,102.5133604,103.5184024,,,,,,,,,,l,1,0.9966448,None,,,,p006,2026-04-14_14h15.40.871,Flanker Compatibility Task,,2026.1.1,119.7045692,2026-04-14 14h15.41.175104 +0800
3,diamond,cong,10,l,4,55,55,0,l,1,0.6612566,None,,,,,0,55,55,130,103.5258157,,,,,,,,103.5199926,104.0147857,104.68439,,,,,,,,,,l,1,0.6612566,None,,,,p006,2026-04-14_14h15.40.871,Flanker Compatibility Task,,2026.1.1,119.7045692,2026-04-14 14h15.41.175104 +0800
1,diamond,incong,10,l,1,56,56,0,l,1,0.5433988,None,,,,,0,56,56,43,104.6918258,,,,,,,,104.6855841,105.1790594,105.7250727,,,,,,,,,,l,1,0.5433988,None,,,,p006,2026-04-14_14h15.40.871,Flanker Compatibility Task,,2026.1.1,119.7045692,2026-04-14 14h15.41.175104 +0800
2,square,cong,-10,a,3,57,57,0,a,1,0.8009863,None,,,,,0,57,57,51,105.733975,,,,,,,,105.7262104,106.2166906,107.0250273,,,,,,,,,,a,1,0.8009863,None,,,,p006,2026-04-14_14h15.40.871,Flanker Compatibility Task,,2026.1.1,119.7045692,2026-04-14 14h15.41.175104 +0800
1,square,cong,-10,a,0,58,58,0,l,0,0.5363127,None,,,,,0,58,58,0,107.0331737,,,,,,,,107.0262022,107.5200063,108.0578007,,,,,,,,,,l,0,0.5363127,None,,,,p006,2026-04-14_14h15.40.871,Flanker Compatibility Task,,2026.1.1,119.7045692,2026-04-14 14h15.41.175104 +0800
1,diamond,cong,10,l,0,59,59,0,l,1,0.8398642,None,,,,,0,59,59,30,108.0658589,,,,,,,,108.0589425,108.551026,109.3922404,,,,,,,,,,l,1,0.8398642,None,,,,p006,2026-04-14_14h15.40.871,Flanker Compatibility Task,,2026.1.1,119.7045692,2026-04-14 14h15.41.175104 +0800
1,diamond,cong,-10,l,4,60,60,0,l,1,0.5102884,None,,,,,0,60,60,28,109.3995932,,,,,,,,109.3936033,109.8917585,110.4073324,,,,,,,,,,l,1,0.5102884,None,,,,p006,2026-04-14_14h15.40.871,Flanker Compatibility Task,,2026.1.1,119.7045692,2026-04-14 14h15.41.175104 +0800
2,square,cong,10,a,5,61,61,0,a,1,0.6491243,None,,,,,0,61,61,59,110.4153116,,,,,,,,110.4086966,110.9027048,111.5574348,,,,,,,,,,a,1,0.6491243,None,,,,p006,2026-04-14_14h15.40.871,Flanker Compatibility Task,,2026.1.1,119.7045692,2026-04-14 14h15.41.175104 +0800
3,diamond,incong,-10,l,4,62,62,0,l,1,0.8345874,None,,,,,0,62,62,136,111.5648313,,,,,,,,111.5587685,112.0513957,112.89129,,,,,,,,,,l,1,0.8345874,None,,,,p006,2026-04-14_14h15.40.871,Flanker Compatibility Task,,2026.1.1,119.7045692,2026-04-14 14h15.41.175104 +0800
1,diamond,cong,-10,l,0,63,63,0,l,1,0.5369694,None,,,,,0,63,63,24,112.8986392,,,,,,,,112.8925025,113.3860984,113.9315641,,,,,,,,,,l,1,0.5369694,None,,,,p006,2026-04-14_14h15.40.871,Flanker Compatibility Task,,2026.1.1,119.7045692,2026-04-14 14h15.41.175104 +0800
1,diamond,incong,10,l,3,64,64,0,l,1,0.5110534,None,,,,,0,64,64,45,113.9401116,,,,,,,,113.9327107,114.4266947,114.9406348,,,,,,,,,,l,1,0.5110534,None,,,,p006,2026-04-14_14h15.40.871,Flanker Compatibility Task,,2026.1.1,119.7045692,2026-04-14 14h15.41.175104 +0800
3,square,cong,10,a,3,65,65,0,a,1,0.524749,None,,,,,0,65,65,105,114.9475359,,,,,,,,114.9421132,115.4405702,115.97374,,,,,,,,,,a,1,0.524749,None,,,,p006,2026-04-14_14h15.40.871,Flanker Compatibility Task,,2026.1.1,119.7045692,2026-04-14 14h15.41.175104 +0800
2,diamond,cong,-10,l,1,66,66,0,l,1,0.6185106,None,,,,,0,66,66,73,115.9814645,,,,,,,,115.9751271,116.4682416,117.0914201,,,,,,,,,,l,1,0.6185106,None,,,,p006,2026-04-14_14h15.40.871,Flanker Compatibility Task,,2026.1.1,119.7045692,2026-04-14 14h15.41.175104 +0800
3,square,cong,-10,a,2,67,67,0,a,1,0.7164804,None,,,,,0,67,67,98,117.0985597,,,,,,,,117.0929039,117.5907387,118.3078784,,,,,,,,,,a,1,0.7164804,None,,,,p006,2026-04-14_14h15.40.871,Flanker Compatibility Task,,2026.1.1,119.7045692,2026-04-14 14h15.41.175104 +0800
1,square,cong,-10,a,1,68,68,0,a,1,0.6441475,None,,,,,0,68,68,1,118.3158781,,,,,,,,118.3090506,118.8050446,119.4560391,,,,,,,,,,a,1,0.6441475,None,,,,p006,2026-04-14_14h15.40.871,Flanker Compatibility Task,,2026.1.1,119.7045692,2026-04-14 14h15.41.175104 +0800
4,diamond,incong,-10,l,1,69,69,0,l,1,0.5293533,None,,,,,0,69,69,181,119.463144,,,,,,,,119.4572133,119.9515336,120.4886265,,,,,,,,,,l,1,0.5293533,None,,,,p006,2026-04-14_14h15.40.871,Flanker Compatibility Task,,2026.1.1,119.7045692,2026-04-14 14h15.41.175104 +0800
2,diamond,cong,10,l,5,70,70,0,l,1,0.5732279,None,,,,,0,70,70,83,120.4966707,,,,,,,,120.4902188,120.9840755,121.5630953,,,,,,,,,,l,1,0.5732279,None,,,,p006,2026-04-14_14h15.40.871,Flanker Compatibility Task,,2026.1.1,119.7045692,2026-04-14 14h15.41.175104 +0800
2,square,cong,10,a,1,71,71,0,a,1,0.7117191,None,,,,,0,71,71,55,121.5707184,,,,,,,,121.5640782,122.0561541,122.7714723,,,,,,,,,,a,1,0.7117191,None,,,,p006,2026-04-14_14h15.40.871,Flanker Compatibility Task,,2026.1.1,119.7045692,2026-04-14 14h15.41.175104 +0800
4,square,incong,10,a,2,72,72,0,a,1,0.769046,None,,,,,0,72,72,164,122.7787634,,,,,,,,122.7730348,123.2681349,124.0384943,,,,,,,,,,a,1,0.769046,None,,,,p006,2026-04-14_14h15.40.871,Flanker Compatibility Task,,2026.1.1,119.7045692,2026-04-14 14h15.41.175104 +0800
4,square,incong,10,a,4,73,73,0,a,1,0.6670027,None,,,,,0,73,73,166,124.0461164,,,,,,,,124.0399603,124.5340652,125.2043746,,,,,,,,,,a,1,0.6670027,None,,,,p006,2026-04-14_14h15.40.871,Flanker Compatibility Task,,2026.1.1,119.7045692,2026-04-14 14h15.41.175104 +0800
3,diamond,incong,10,l,0,74,74,0,l,1,1.5208973,None,,,,,0,74,74,138,125.2115677,,,,,,,,125.2057376,125.6982884,127.2216221,,,,,,,,,,l,1,1.5208973,None,,,,p006,2026-04-14_14h15.40.871,Flanker Compatibility Task,,2026.1.1,119.7045692,2026-04-14 14h15.41.175104 +0800
2,diamond,cong,-10,l,2,75,75,0,l,1,0.5566144,None,,,,,0,75,75,74,127.2287701,,,,,,,,127.2229554,127.7242171,128.2879846,,,,,,,,,,l,1,0.5566144,None,,,,p006,2026-04-14_14h15.40.871,Flanker Compatibility Task,,2026.1.1,119.7045692,2026-04-14 14h15.41.175104 +0800
3,square,incong,10,a,1,76,76,0,a,1,0.6864129,None,,,,,0,76,76,115,128.2952399,,,,,,,,128.2894599,128.7907215,129.4794526,,,,,,,,,,a,1,0.6864129,None,,,,p006,2026-04-14_14h15.40.871,Flanker Compatibility Task,,2026.1.1,119.7045692,2026-04-14 14h15.41.175104 +0800
4,square,incong,10,a,1,77,77,0,a,1,0.5612789,None,,,,,0,77,77,163,129.486269,,,,,,,,129.4810344,129.9823051,130.5458431,,,,,,,,,,a,1,0.5612789,None,,,,p006,2026-04-14_14h15.40.871,Flanker Compatibility Task,,2026.1.1,119.7045692,2026-04-14 14h15.41.175104 +0800
4,square,incong,-10,a,5,78,78,0,a,1,0.8977344,None,,,,,0,78,78,161,130.5525955,,,,,,,,130.5474451,131.0464089,131.9529558,,,,,,,,,,a,1,0.8977344,None,,,,p006,2026-04-14_14h15.40.871,Flanker Compatibility Task,,2026.1.1,119.7045692,2026-04-14 14h15.41.175104 +0800
1,diamond,incong,-10,l,2,79,79,0,l,1,0.5858938,None,,,,,0,79,79,38,131.9607711,,,,,,,,131.9541097,132.4451516,133.0364788,,,,,,,,,,l,1,0.5858938,None,,,,p006,2026-04-14_14h15.40.871,Flanker Compatibility Task,,2026.1.1,119.7045692,2026-04-14 14h15.41.175104 +0800
2,square,cong,10,a,4,80,80,0,a,1,0.5693425,None,,,,,0,80,80,58,133.0440216,,,,,,,,133.0378407,133.5309597,134.1023253,,,,,,,,,,a,1,0.5693425,None,,,,p006,2026-04-14_14h15.40.871,Flanker Compatibility Task,,2026.1.1,119.7045692,2026-04-14 14h15.41.175104 +0800
4,diamond,incong,10,l,5,81,81,0,l,1,1.2409037,None,,,,,0,81,81,191,134.1101715,,,,,,,,134.103723,134.5985944,135.843855,,,,,,,,,,l,1,1.2409037,None,,,,p006,2026-04-14_14h15.40.871,Flanker Compatibility Task,,2026.1.1,119.7045692,2026-04-14 14h15.41.175104 +0800
3,square,incong,-10,a,5,82,82,0,a,1,0.7465848,None,,,,,0,82,82,113,135.8518936,,,,,,,,135.8451974,136.33889,137.0930759,,,,,,,,,,a,1,0.7465848,None,,,,p006,2026-04-14_14h15.40.871,Flanker Compatibility Task,,2026.1.1,119.7045692,2026-04-14 14h15.41.175104 +0800
3,diamond,cong,-10,l,3,83,83,0,l,1,1.0013905,None,,,,,0,83,83,123,137.1011506,,,,,,,,137.0941928,137.5878263,138.5930905,,,,,,,,,,l,1,1.0013905,None,,,,p006,2026-04-14_14h15.40.871,Flanker Compatibility Task,,2026.1.1,119.7045692,2026-04-14 14h15.41.175104 +0800
2,square,incong,10,a,2,84,84,0,a,1,0.6134842,None,,,,,0,84,84,68,138.6008929,,,,,,,,138.5943298,139.0868804,139.7091561,,,,,,,,,,a,1,0.6134842,None,,,,p006,2026-04-14_14h15.40.871,Flanker Compatibility Task,,2026.1.1,119.7045692,2026-04-14 14h15.41.175104 +0800
3,diamond,incong,-10,l,0,85,85,0,l,1,0.6322083,None,,,,,0,85,85,132,139.7179969,,,,,,,,139.7104863,140.2048081,140.8426227,,,,,,,,,,l,1,0.6322083,None,,,,p006,2026-04-14_14h15.40.871,Flanker Compatibility Task,,2026.1.1,119.7045692,2026-04-14 14h15.41.175104 +0800
3,square,incong,-10,a,2,86,86,0,a,1,0.6387696,None,,,,,0,86,86,110,140.850581,,,,,,,,140.8440375,141.3350253,141.9760762,,,,,,,,,,a,1,0.6387696,None,,,,p006,2026-04-14_14h15.40.871,Flanker Compatibility Task,,2026.1.1,119.7045692,2026-04-14 14h15.41.175104 +0800
2,square,incong,10,a,1,87,87,0,a,1,0.7527311,None,,,,,0,87,87,67,141.9838592,,,,,,,,141.9774781,142.4701646,143.2243283,,,,,,,,,,a,1,0.7527311,None,,,,p006,2026-04-14_14h15.40.871,Flanker Compatibility Task,,2026.1.1,119.7045692,2026-04-14 14h15.41.175104 +0800
1,square,cong,10,a,5,88,88,0,a,1,0.6406412,None,,,,,0,88,88,11,143.2318817,,,,,,,,143.2252479,143.7193722,144.366675,,,,,,,,,,a,1,0.6406412,None,,,,p006,2026-04-14_14h15.40.871,Flanker Compatibility Task,,2026.1.1,119.7045692,2026-04-14 14h15.41.175104 +0800
2,square,cong,10,a,2,89,89,0,a,1,0.7969181,None,,,,,0,89,89,56,144.3743116,,,,,,,,144.3680793,144.8594131,145.6583115,,,,,,,,,,a,1,0.7969181,None,,,,p006,2026-04-14_14h15.40.871,Flanker Compatibility Task,,2026.1.1,119.7045692,2026-04-14 14h15.41.175104 +0800
1,square,incong,10,a,0,90,90,0,l,0,0.8272779,None,,,,,0,90,90,18,145.6654368,,,,,,,,145.6593736,146.1529398,146.9821612,,,,,,,,,,l,0,0.8272779,None,,,,p006,2026-04-14_14h15.40.871,Flanker Compatibility Task,,2026.1.1,119.7045692,2026-04-14 14h15.41.175104 +0800
1,square,cong,-10,a,4,91,91,0,a,1,1.2565365,None,,,,,0,91,91,4,146.9894534,,,,,,,,146.9833223,147.4771726,148.7406848,,,,,,,,,,a,1,1.2565365,None,,,,p006,2026-04-14_14h15.40.871,Flanker Compatibility Task,,2026.1.1,119.7045692,2026-04-14 14h15.41.175104 +0800
2,diamond,cong,10,l,3,92,92,0,l,1,0.6331528,None,,,,,0,92,92,81,148.7481831,,,,,,,,148.7416966,149.2349453,149.8729894,,,,,,,,,,l,1,0.6331528,None,,,,p006,2026-04-14_14h15.40.871,Flanker Compatibility Task,,2026.1.1,119.7045692,2026-04-14 14h15.41.175104 +0800
1,square,incong,10,a,3,93,93,0,a,1,0.7272319,None,,,,,0,93,93,21,149.8807176,,,,,,,,149.8741595,150.3682633,151.0980119,,,,,,,,,,a,1,0.7272319,None,,,,p006,2026-04-14_14h15.40.871,Flanker Compatibility Task,,2026.1.1,119.7045692,2026-04-14 14h15.41.175104 +0800
4,diamond,cong,10,l,1,94,94,0,l,1,1.5848431,None,,,,,0,94,94,175,151.1054403,,,,,,,,151.0995267,151.5931155,153.1806319,,,,,,,,,,l,1,1.5848431,None,,,,p006,2026-04-14_14h15.40.871,Flanker Compatibility Task,,2026.1.1,119.7045692,2026-04-14 14h15.41.175104 +0800
2,square,incong,-10,a,2,95,95,0,a,1,0.4924881,None,,,,,0,95,95,62,153.1880869,,,,,,,,153.1816567,153.6756441,154.1715608,,,,,,,,,,a,1,0.4924881,None,,,,p006,2026-04-14_14h15.40.871,Flanker Compatibility Task,,2026.1.1,119.7045692,2026-04-14 14h15.41.175104 +0800
4,diamond,cong,10,l,2,96,96,0,l,1,1.0434602,None,,,,,0,96,96,176,154.1792759,,,,,,,,154.1729885,154.6662547,155.7133623,,,,,,,,,,l,1,1.0434602,None,,,,p006,2026-04-14_14h15.40.871,Flanker Compatibility Task,,2026.1.1,119.7045692,2026-04-14 14h15.41.175104 +0800
4,diamond,incong,-10,l,3,97,97,0,l,1,1.2674586,None,,,,,0,97,97,183,155.7213018,,,,,,,,155.7144856,156.2089361,157.4794922,,,,,,,,,,l,1,1.2674586,None,,,,p006,2026-04-14_14h15.40.871,Flanker Compatibility Task,,2026.1.1,119.7045692,2026-04-14 14h15.41.175104 +0800
1,square,incong,10,a,4,98,98,0,a,1,0.4780064,None,,,,,0,98,98,22,157.4871571,,,,,,,,157.4806533,157.9718075,158.4537622,,,,,,,,,,a,1,0.4780064,None,,,,p006,2026-04-14_14h15.40.871,Flanker Compatibility Task,,2026.1.1,119.7045692,2026-04-14 14h15.41.175104 +0800
2,square,cong,-10,a,4,99,99,0,l,0,0.5522612,None,,,,,0,99,99,52,158.4616664,,,,,,,,158.4550376,158.9498294,159.5039679,,,,,,,,,,l,0,0.5522612,None,,,,p006,2026-04-14_14h15.40.871,Flanker Compatibility Task,,2026.1.1,119.7045692,2026-04-14 14h15.41.175104 +0800
2,diamond,incong,10,l,1,100,100,0,l,1,0.6561587,None,,,,,0,100,100,91,159.5114425,,,,,,,,159.5051353,159.999049,160.6634591,,,,,,,,,,l,1,0.6561587,None,,,,p006,2026-04-14_14h15.40.871,Flanker Compatibility Task,,2026.1.1,119.7045692,2026-04-14 14h15.41.175104 +0800
4,square,incong,-10,a,1,101,101,0,a,1,0.5219786,None,,,,,0,101,101,157,160.6701593,,,,,,,,160.6648891,161.1664069,161.69574,,,,,,,,,,a,1,0.5219786,None,,,,p006,2026-04-14_14h15.40.871,Flanker Compatibility Task,,2026.1.1,119.7045692,2026-04-14 14h15.41.175104 +0800
4,square,incong,-10,a,3,102,102,0,a,1,0.5921272,None,,,,,0,102,102,159,161.7033313,,,,,,,,161.6972811,162.1962007,162.7949205,,,,,,,,,,a,1,0.5921272,None,,,,p006,2026-04-14_14h15.40.871,Flanker Compatibility Task,,2026.1.1,119.7045692,2026-04-14 14h15.41.175104 +0800
3,diamond,cong,10,l,0,103,103,0,l,1,0.8903982,None,,,,,0,103,103,126,162.802103,,,,,,,,162.7962733,163.2976197,164.1945131,,,,,,,,,,l,1,0.8903982,None,,,,p006,2026-04-14_14h15.40.871,Flanker Compatibility Task,,2026.1.1,119.7045692,2026-04-14 14h15.41.175104 +0800
3,square,cong,-10,a,1,104,104,0,a,1,0.7265019,None,,,,,0,104,104,97,164.2029163,,,,,,,,164.1955104,164.6903419,165.4200415,,,,,,,,,,a,1,0.7265019,None,,,,p006,2026-04-14_14h15.40.871,Flanker Compatibility Task,,2026.1.1,119.7045692,2026-04-14 14h15.41.175104 +0800
1,diamond,incong,-10,l,4,105,105,0,l,1,0.5731159,None,,,,,0,105,105,40,165.4265807,,,,,,,,165.4212882,165.9217895,166.5016384,,,,,,,,,,l,1,0.5731159,None,,,,p006,2026-04-14_14h15.40.871,Flanker Compatibility Task,,2026.1.1,119.7045692,2026-04-14 14h15.41.175104 +0800
1,diamond,cong,10,l,4,106,106,0,l,1,0.7088412,None,,,,,0,106,106,34,166.5096182,,,,,,,,166.5028061,166.9970174,167.7109414,,,,,,,,,,l,1,0.7088412,None,,,,p006,2026-04-14_14h15.40.871,Flanker Compatibility Task,,2026.1.1,119.7045692,2026-04-14 14h15.41.175104 +0800
1,diamond,cong,10,l,3,107,107,0,l,1,0.5465503,None,,,,,0,107,107,33,167.7178529,,,,,,,,167.7125708,168.2063168,168.7596901,,,,,,,,,,l,1,0.5465503,None,,,,p006,2026-04-14_14h15.40.871,Flanker Compatibility Task,,2026.1.1,119.7045692,2026-04-14 14h15.41.175104 +0800
3,diamond,cong,10,l,1,108,108,0,l,1,0.5384267,None,,,,,0,108,108,127,168.7671935,,,,,,,,168.7610103,169.2530477,169.7938709,,,,,,,,,,l,1,0.5384267,None,,,,p006,2026-04-14_14h15.40.871,Flanker Compatibility Task,,2026.1.1,119.7045692,2026-04-14 14h15.41.175104 +0800
2,diamond,incong,-10,l,1,109,109,0,l,1,0.5495491,None,,,,,0,109,109,85,169.8004503,,,,,,,,169.7952176,170.2940929,170.8444145,,,,,,,,,,l,1,0.5495491,None,,,,p006,2026-04-14_14h15.40.871,Flanker Compatibility Task,,2026.1.1,119.7045692,2026-04-14 14h15.41.175104 +0800
4,square,cong,10,a,5,110,110,0,a,1,0.8935974,None,,,,,0,110,110,155,170.8502072,,,,,,,,170.8459424,171.3425332,172.2424416,,,,,,,,,,a,1,0.8935974,None,,,,p006,2026-04-14_14h15.40.871,Flanker Compatibility Task,,2026.1.1,119.7045692,2026-04-14 14h15.41.175104 +0800
3,diamond,incong,-10,l,1,111,111,0,l,1,1.0779948,None,,,,,0,111,111,133,172.250086,,,,,,,,172.2437797,172.7374609,173.8190511,,,,,,,,,,l,1,1.0779948,None,,,,p006,2026-04-14_14h15.40.871,Flanker Compatibility Task,,2026.1.1,119.7045692,2026-04-14 14h15.41.175104 +0800
4,square,cong,-10,a,5,112,112,0,a,1,0.5726715,None,,,,,0,112,112,149,173.8252476,,,,,,,,173.8205329,174.3201478,174.9002116,,,,,,,,,,a,1,0.5726715,None,,,,p006,2026-04-14_14h15.40.871,Flanker Compatibility Task,,2026.1.1,119.7045692,2026-04-14 14h15.41.175104 +0800
3,square,cong,10,a,5,113,113,0,a,1,0.5464914,None,,,,,0,113,113,107,174.9075858,,,,,,,,174.9011975,175.3936814,175.9412436,,,,,,,,,,a,1,0.5464914,None,,,,p006,2026-04-14_14h15.40.871,Flanker Compatibility Task,,2026.1.1,119.7045692,2026-04-14 14h15.41.175104 +0800
4,diamond,cong,-10,l,5,114,114,0,l,1,0.6554179,None,,,,,0,114,114,173,175.9493355,,,,,,,,175.9426417,176.4374596,177.1004896,,,,,,,,,,l,1,0.6554179,None,,,,p006,2026-04-14_14h15.40.871,Flanker Compatibility Task,,2026.1.1,119.7045692,2026-04-14 14h15.41.175104 +0800
2,square,cong,-10,a,2,115,115,0,a,1,0.5775464,None,,,,,0,115,115,50,177.1071553,,,,,,,,177.1017777,177.6002888,178.182201,,,,,,,,,,a,1,0.5775464,None,,,,p006,2026-04-14_14h15.40.871,Flanker Compatibility Task,,2026.1.1,119.7045692,2026-04-14 14h15.41.175104 +0800
2,diamond,incong,10,l,3,116,116,0,l,1,0.5267556,None,,,,,0,116,116,93,178.1900197,,,,,,,,178.1834211,178.6746174,179.2072546,,,,,,,,,,l,1,0.5267556,None,,,,p006,2026-04-14_14h15.40.871,Flanker Compatibility Task,,2026.1.1,119.7045692,2026-04-14 14h15.41.175104 +0800
3,square,cong,-10,a,3,117,117,0,a,1,0.8090275,None,,,,,0,117,117,99,179.2161312,,,,,,,,179.2084067,179.7030159,180.5157333,,,,,,,,,,a,1,0.8090275,None,,,,p006,2026-04-14_14h15.40.871,Flanker Compatibility Task,,2026.1.1,119.7045692,2026-04-14 14h15.41.175104 +0800
3,diamond,cong,-10,l,0,118,118,0,l,1,0.6231553,None,,,,,0,118,118,120,180.5226677,,,,,,,,180.5170342,181.0158224,181.6409667,,,,,,,,,,l,1,0.6231553,None,,,,p006,2026-04-14_14h15.40.871,Flanker Compatibility Task,,2026.1.1,119.7045692,2026-04-14 14h15.41.175104 +0800
1,square,incong,-10,a,1,119,119,0,l,0,0.5603708,None,,,,,0,119,119,13,181.6473366,,,,,,,,181.6422311,182.1393465,182.706713,,,,,,,,,,l,0,0.5603708,None,,,,p006,2026-04-14_14h15.40.871,Flanker Compatibility Task,,2026.1.1,119.7045692,2026-04-14 14h15.41.175104 +0800
3,square,incong,-10,a,3,120,120,0,a,1,0.8711705,None,,,,,0,120,120,111,182.7142439,,,,,,,,182.7081576,183.2029986,184.0810152,,,,,,,,,,a,1,0.8711705,None,,,,p006,2026-04-14_14h15.40.871,Flanker Compatibility Task,,2026.1.1,119.7045692,2026-04-14 14h15.41.175104 +0800
4,diamond,cong,10,l,0,121,121,0,l,1,0.5024582,None,,,,,0,121,121,174,184.0885385,,,,,,,,184.0823968,184.5773231,185.0804515,,,,,,,,,,l,1,0.5024582,None,,,,p006,2026-04-14_14h15.40.871,Flanker Compatibility Task,,2026.1.1,119.7045692,2026-04-14 14h15.41.175104 +0800
2,diamond,incong,10,l,0,122,122,0,l,1,0.5437101,None,,,,,0,122,122,90,185.0882634,,,,,,,,185.081253,185.575679,186.1223135,,,,,,,,,,l,1,0.5437101,None,,,,p006,2026-04-14_14h15.40.871,Flanker Compatibility Task,,2026.1.1,119.7045692,2026-04-14 14h15.41.175104 +0800
4,diamond,cong,-10,l,0,123,123,0,l,1,0.5371241,None,,,,,0,123,123,168,186.1298954,,,,,,,,186.1232446,186.6183187,187.1636753,,,,,,,,,,l,1,0.5371241,None,,,,p006,2026-04-14_14h15.40.871,Flanker Compatibility Task,,2026.1.1,119.7045692,2026-04-14 14h15.41.175104 +0800
1,square,incong,-10,a,4,124,124,0,a,1,0.4526139,None,,,,,0,124,124,16,187.1711742,,,,,,,,187.1648561,187.658551,188.113248,,,,,,,,,,a,1,0.4526139,None,,,,p006,2026-04-14_14h15.40.871,Flanker Compatibility Task,,2026.1.1,119.7045692,2026-04-14 14h15.41.175104 +0800
2,square,incong,-10,a,4,125,125,0,a,1,0.4645826,None,,,,,0,125,125,64,188.1215566,,,,,,,,188.1144748,188.6084008,189.0801194,,,,,,,,,,a,1,0.4645826,None,,,,p006,2026-04-14_14h15.40.871,Flanker Compatibility Task,,2026.1.1,119.7045692,2026-04-14 14h15.41.175104 +0800
4,square,incong,-10,a,4,126,126,0,a,1,0.4700185,None,,,,,0,126,126,160,189.0884372,,,,,,,,189.0818726,189.5757728,190.0543614,,,,,,,,,,a,1,0.4700185,None,,,,p006,2026-04-14_14h15.40.871,Flanker Compatibility Task,,2026.1.1,119.7045692,2026-04-14 14h15.41.175104 +0800
1,diamond,incong,10,l,5,127,127,0,l,1,0.5031196,None,,,,,0,127,127,47,190.0622527,,,,,,,,190.0554893,190.5475033,191.0543859,,,,,,,,,,l,1,0.5031196,None,,,,p006,2026-04-14_14h15.40.871,Flanker Compatibility Task,,2026.1.1,119.7045692,2026-04-14 14h15.41.175104 +0800
2,diamond,cong,10,l,1,128,128,0,l,1,0.5869331,None,,,,,0,128,128,79,191.0621115,,,,,,,,191.0555576,191.5488864,192.1383998,,,,,,,,,,l,1,0.5869331,None,,,,p006,2026-04-14_14h15.40.871,Flanker Compatibility Task,,2026.1.1,119.7045692,2026-04-14 14h15.41.175104 +0800
2,diamond,incong,-10,l,4,129,129,0,l,1,0.5354432,None,,,,,0,129,129,88,192.144806,,,,,,,,192.1397275,192.6384757,193.1794363,,,,,,,,,,l,1,0.5354432,None,,,,p006,2026-04-14_14h15.40.871,Flanker Compatibility Task,,2026.1.1,119.7045692,2026-04-14 14h15.41.175104 +0800
3,square,cong,10,a,0,130,130,0,a,1,0.5384159,None,,,,,0,130,130,102,193.187066,,,,,,,,193.1809144,193.6825592,194.2302918,,,,,,,,,,a,1,0.5384159,None,,,,p006,2026-04-14_14h15.40.871,Flanker Compatibility Task,,2026.1.1,119.7045692,2026-04-14 14h15.41.175104 +0800
4,diamond,incong,10,l,3,131,131,0,l,1,0.7982246,None,,,,,0,131,131,189,194.2370842,,,,,,,,194.2318129,194.7333762,195.5367209,,,,,,,,,,l,1,0.7982246,None,,,,p006,2026-04-14_14h15.40.871,Flanker Compatibility Task,,2026.1.1,119.7045692,2026-04-14 14h15.41.175104 +0800
2,diamond,incong,-10,l,2,132,132,0,l,1,0.6116527,None,,,,,0,132,132,86,195.5441164,,,,,,,,195.5376344,196.030352,196.6441768,,,,,,,,,,l,1,0.6116527,None,,,,p006,2026-04-14_14h15.40.871,Flanker Compatibility Task,,2026.1.1,119.7045692,2026-04-14 14h15.41.175104 +0800
3,square,incong,10,a,0,133,133,0,a,1,0.7326238,None,,,,,0,133,133,114,196.6519557,,,,,,,,196.6455806,197.1362297,197.8698125,,,,,,,,,,a,1,0.7326238,None,,,,p006,2026-04-14_14h15.40.871,Flanker Compatibility Task,,2026.1.1,119.7045692,2026-04-14 14h15.41.175104 +0800
1,square,cong,10,a,4,134,134,0,a,1,0.5659962,None,,,,,0,134,134,10,197.8768654,,,,,,,,197.8709814,198.3629009,198.9353478,,,,,,,,,,a,1,0.5659962,None,,,,p006,2026-04-14_14h15.40.871,Flanker Compatibility Task,,2026.1.1,119.7045692,2026-04-14 14h15.41.175104 +0800
1,diamond,incong,-10,l,5,135,135,0,l,1,0.4882779,None,,,,,0,135,135,41,198.9437213,,,,,,,,198.936515,199.4312874,199.9272068,,,,,,,,,,l,1,0.4882779,None,,,,p006,2026-04-14_14h15.40.871,Flanker Compatibility Task,,2026.1.1,119.7045692,2026-04-14 14h15.41.175104 +0800
2,square,incong,10,a,3,136,136,0,a,1,0.6202932,None,,,,,0,136,136,69,199.9346378,,,,,,,,199.9283586,200.418687,201.0436367,,,,,,,,,,a,1,0.6202932,None,,,,p006,2026-04-14_14h15.40.871,Flanker Compatibility Task,,2026.1.1,119.7045692,2026-04-14 14h15.41.175104 +0800
3,square,incong,-10,a,1,137,137,0,a,1,0.5791317,None,,,,,0,137,137,109,201.0510542,,,,,,,,201.045011,201.5389485,202.1187182,,,,,,,,,,a,1,0.5791317,None,,,,p006,2026-04-14_14h15.40.871,Flanker Compatibility Task,,2026.1.1,119.7045692,2026-04-14 14h15.41.175104 +0800
2,square,incong,-10,a,0,138,138,0,a,1,0.5915391,None,,,,,0,138,138,60,202.1256404,,,,,,,,202.1199157,202.6133924,203.2091844,,,,,,,,,,a,1,0.5915391,None,,,,p006,2026-04-14_14h15.40.871,Flanker Compatibility Task,,2026.1.1,119.7045692,2026-04-14 14h15.41.175104 +0800
1,square,incong,-10,a,3,139,139,0,a,1,0.5402736,None,,,,,0,139,139,15,203.2174666,,,,,,,,203.2103656,203.7026146,204.250657,,,,,,,,,,a,1,0.5402736,None,,,,p006,2026-04-14_14h15.40.871,Flanker Compatibility Task,,2026.1.1,119.7045692,2026-04-14 14h15.41.175104 +0800
2,diamond,cong,-10,l,4,140,140,0,l,1,0.6082933,None,,,,,0,140,140,76,204.2583573,,,,,,,,204.2518708,204.7464217,205.3608067,,,,,,,,,,l,1,0.6082933,None,,,,p006,2026-04-14_14h15.40.871,Flanker Compatibility Task,,2026.1.1,119.7045692,2026-04-14 14h15.41.175104 +0800
2,diamond,cong,10,l,2,141,141,0,l,1,0.6063632,None,,,,,0,141,141,80,205.3667546,,,,,,,,205.3621356,205.8599366,206.4682672,,,,,,,,,,l,1,0.6063632,None,,,,p006,2026-04-14_14h15.40.871,Flanker Compatibility Task,,2026.1.1,119.7045692,2026-04-14 14h15.41.175104 +0800
1,square,incong,-10,a,0,142,142,0,a,1,0.5522899,None,,,,,0,142,142,12,206.4753495,,,,,,,,206.4695758,206.9666053,207.5263281,,,,,,,,,,a,1,0.5522899,None,,,,p006,2026-04-14_14h15.40.871,Flanker Compatibility Task,,2026.1.1,119.7045692,2026-04-14 14h15.41.175104 +0800
4,square,cong,10,a,1,143,143,0,l,0,0.6606872,None,,,,,0,143,143,151,207.5333223,,,,,,,,207.527851,208.0296116,208.6926378,,,,,,,,,,l,0,0.6606872,None,,,,p006,2026-04-14_14h15.40.871,Flanker Compatibility Task,,2026.1.1,119.7045692,2026-04-14 14h15.41.175104 +0800
3,diamond,incong,10,l,1,144,144,0,a,0,0.5424489,None,,,,,0,144,144,139,208.6995368,,,,,,,,208.6941531,209.1949496,209.7421868,,,,,,,,,,a,0,0.5424489,None,,,,p006,2026-04-14_14h15.40.871,Flanker Compatibility Task,,2026.1.1,119.7045692,2026-04-14 14h15.41.175104 +0800
1,diamond,cong,-10,l,5,145,145,0,l,1,0.7403177,None,,,,,0,145,145,29,209.7491629,,,,,,,,209.7434812,210.2365963,210.9825881,,,,,,,,,,l,1,0.7403177,None,,,,p006,2026-04-14_14h15.40.871,Flanker Compatibility Task,,2026.1.1,119.7045692,2026-04-14 14h15.41.175104 +0800
3,square,cong,10,a,1,146,146,0,a,1,0.6613558,None,,,,,0,146,146,103,210.9902336,,,,,,,,210.9838732,211.477622,212.1415146,,,,,,,,,,a,1,0.6613558,None,,,,p006,2026-04-14_14h15.40.871,Flanker Compatibility Task,,2026.1.1,119.7045692,2026-04-14 14h15.41.175104 +0800
3,square,incong,-10,a,4,147,147,0,a,1,1.2321757,None,,,,,0,147,147,112,212.1484381,,,,,,,,212.1429386,212.6357938,213.8751386,,,,,,,,,,a,1,1.2321757,None,,,,p006,2026-04-14_14h15.40.871,Flanker Compatibility Task,,2026.1.1,119.7045692,2026-04-14 14h15.41.175104 +0800
3,diamond,cong,-10,l,2,148,148,0,l,1,0.6772942,None,,,,,0,148,148,122,213.8820978,,,,,,,,213.8765745,214.376549,215.0573734,,,,,,,,,,l,1,0.6772942,None,,,,p006,2026-04-14_14h15.40.871,Flanker Compatibility Task,,2026.1.1,119.7045692,2026-04-14 14h15.41.175104 +0800
4,square,cong,-10,a,3,149,149,0,a,1,0.7610321,None,,,,,0,149,149,147,215.0649202,,,,,,,,215.0589002,215.5520431,216.3154377,,,,,,,,,,a,1,0.7610321,None,,,,p006,2026-04-14_14h15.40.871,Flanker Compatibility Task,,2026.1.1,119.7045692,2026-04-14 14h15.41.175104 +0800
2,diamond,incong,-10,l,3,150,150,0,l,1,0.6301019,None,,,,,0,150,150,87,216.3226004,,,,,,,,216.3167609,216.8153617,217.4489173,,,,,,,,,,l,1,0.6301019,None,,,,p006,2026-04-14_14h15.40.871,Flanker Compatibility Task,,2026.1.1,119.7045692,2026-04-14 14h15.41.175104 +0800
1,square,incong,10,a,5,151,151,0,a,1,0.6233325,None,,,,,0,151,151,23,217.4552826,,,,,,,,217.450198,217.9430879,218.5724024,,,,,,,,,,a,1,0.6233325,None,,,,p006,2026-04-14_14h15.40.871,Flanker Compatibility Task,,2026.1.1,119.7045692,2026-04-14 14h15.41.175104 +0800
2,square,incong,-10,a,1,152,152,0,l,0,0.5559895,None,,,,,0,152,152,61,218.5803241,,,,,,,,218.5733209,219.0676405,219.6304207,,,,,,,,,,l,0,0.5559895,None,,,,p006,2026-04-14_14h15.40.871,Flanker Compatibility Task,,2026.1.1,119.7045692,2026-04-14 14h15.41.175104 +0800
4,square,incong,10,a,5,153,153,0,a,1,0.897492,None,,,,,0,153,153,167,219.6390973,,,,,,,,219.6319175,220.1242054,221.0299008,,,,,,,,,,a,1,0.897492,None,,,,p006,2026-04-14_14h15.40.871,Flanker Compatibility Task,,2026.1.1,119.7045692,2026-04-14 14h15.41.175104 +0800
3,square,incong,10,a,3,154,154,0,a,1,0.6722688,None,,,,,0,154,154,117,221.0379227,,,,,,,,221.0313749,221.5256059,222.2048031,,,,,,,,,,a,1,0.6722688,None,,,,p006,2026-04-14_14h15.40.871,Flanker Compatibility Task,,2026.1.1,119.7045692,2026-04-14 14h15.41.175104 +0800
4,diamond,cong,-10,l,3,155,155,0,l,1,1.4941632,None,,,,,0,155,155,171,222.2125438,,,,,,,,222.2062431,222.700516,224.1969028,,,,,,,,,,l,1,1.4941632,None,,,,p006,2026-04-14_14h15.40.871,Flanker Compatibility Task,,2026.1.1,119.7045692,2026-04-14 14h15.41.175104 +0800
2,square,incong,10,a,4,156,156,0,a,1,0.5922407,None,,,,,0,156,156,70,224.2037415,,,,,,,,224.1982941,224.6910649,225.2876685,,,,,,,,,,a,1,0.5922407,None,,,,p006,2026-04-14_14h15.40.871,Flanker Compatibility Task,,2026.1.1,119.7045692,2026-04-14 14h15.41.175104 +0800
4,square,incong,10,a,0,157,157,0,a,1,1.2031695,None,,,,,0,157,157,162,225.2952699,,,,,,,,225.289079,225.7829588,226.9875602,,,,,,,,,,a,1,1.2031695,None,,,,p006,2026-04-14_14h15.40.871,Flanker Compatibility Task,,2026.1.1,119.7045692,2026-04-14 14h15.41.175104 +0800
1,square,cong,10,a,0,158,158,0,a,1,0.4585362,None,,,,,0,158,158,6,226.9947835,,,,,,,,226.9888756,227.4812499,227.9450268,,,,,,,,,,a,1,0.4585362,None,,,,p006,2026-04-14_14h15.40.871,Flanker Compatibility Task,,2026.1.1,119.7045692,2026-04-14 14h15.41.175104 +0800
2,square,cong,-10,a,5,159,159,0,a,1,0.5697895,None,,,,,0,159,159,53,227.9536533,,,,,,,,227.9462708,228.4397623,229.0113765,,,,,,,,,,a,1,0.5697895,None,,,,p006,2026-04-14_14h15.40.871,Flanker Compatibility Task,,2026.1.1,119.7045692,2026-04-14 14h15.41.175104 +0800
2,diamond,cong,-10,l,0,160,160,0,l,1,0.6420331,None,,,,,0,160,160,72,229.0195052,,,,,,,,229.0125628,229.5065127,230.1528543,,,,,,,,,,l,1,0.6420331,None,,,,p006,2026-04-14_14h15.40.871,Flanker Compatibility Task,,2026.1.1,119.7045692,2026-04-14 14h15.41.175104 +0800
4,square,cong,-10,a,0,161,161,0,a,1,0.5409317,None,,,,,0,161,161,144,230.1607324,,,,,,,,230.1549573,230.6461987,231.1878547,,,,,,,,,,a,1,0.5409317,None,,,,p006,2026-04-14_14h15.40.871,Flanker Compatibility Task,,2026.1.1,119.7045692,2026-04-14 14h15.41.175104 +0800
1,diamond,incong,-10,l,1,162,162,0,l,1,0.5530203,None,,,,,0,162,162,37,231.1938087,,,,,,,,231.1892019,231.6863065,232.2440393,,,,,,,,,,l,1,0.5530203,None,,,,p006,2026-04-14_14h15.40.871,Flanker Compatibility Task,,2026.1.1,119.7045692,2026-04-14 14h15.41.175104 +0800
4,diamond,incong,-10,l,5,163,163,0,l,1,1.0649813,None,,,,,0,163,163,185,232.2522216,,,,,,,,232.2454999,232.7381572,233.8039045,,,,,,,,,,l,1,1.0649813,None,,,,p006,2026-04-14_14h15.40.871,Flanker Compatibility Task,,2026.1.1,119.7045692,2026-04-14 14h15.41.175104 +0800
2,diamond,incong,-10,l,0,164,164,0,l,1,0.7725683,None,,,,,0,164,164,84,233.8098116,,,,,,,,233.8052339,234.3048105,235.0849812,,,,,,,,,,l,1,0.7725683,None,,,,p006,2026-04-14_14h15.40.871,Flanker Compatibility Task,,2026.1.1,119.7045692,2026-04-14 14h15.41.175104 +0800
1,diamond,cong,-10,l,3,165,165,0,l,1,0.4985901,None,,,,,0,165,165,27,235.0927399,,,,,,,,235.085909,235.5767891,236.0771767,,,,,,,,,,l,1,0.4985901,None,,,,p006,2026-04-14_14h15.40.871,Flanker Compatibility Task,,2026.1.1,119.7045692,2026-04-14 14h15.41.175104 +0800
4,diamond,cong,10,l,5,166,166,0,l,1,0.5854135,None,,,,,0,166,166,179,236.0847139,,,,,,,,236.0786846,236.5791803,237.1694741,,,,,,,,,,l,1,0.5854135,None,,,,p006,2026-04-14_14h15.40.871,Flanker Compatibility Task,,2026.1.1,119.7045692,2026-04-14 14h15.41.175104 +0800
1,square,cong,10,a,2,167,167,0,a,1,0.5374881,None,,,,,0,167,167,8,237.1762276,,,,,,,,237.1707811,237.6697614,238.209535,,,,,,,,,,a,1,0.5374881,None,,,,p006,2026-04-14_14h15.40.871,Flanker Compatibility Task,,2026.1.1,119.7045692,2026-04-14 14h15.41.175104 +0800
1,diamond,incong,10,l,0,168,168,0,l,1,0.5121992,None,,,,,0,168,168,42,238.2172661,,,,,,,,238.2107502,238.7028082,239.2181228,,,,,,,,,,l,1,0.5121992,None,,,,p006,2026-04-14_14h15.40.871,Flanker Compatibility Task,,2026.1.1,119.7045692,2026-04-14 14h15.41.175104 +0800
1,diamond,cong,10,l,1,169,169,0,l,1,0.7813389,None,,,,,0,169,169,31,239.2258932,,,,,,,,239.2192904,239.7189092,240.5015932,,,,,,,,,,l,1,0.7813389,None,,,,p006,2026-04-14_14h15.40.871,Flanker Compatibility Task,,2026.1.1,119.7045692,2026-04-14 14h15.41.175104 +0800
3,diamond,incong,10,l,3,170,170,0,l,1,1.2756715,None,,,,,0,170,170,141,240.5082617,,,,,,,,240.5030017,241.0028011,242.2835188,,,,,,,,,,l,1,1.2756715,None,,,,p006,2026-04-14_14h15.40.871,Flanker Compatibility Task,,2026.1.1,119.7045692,2026-04-14 14h15.41.175104 +0800
2,square,incong,-10,a,3,171,171,0,a,1,0.6124433,None,,,,,0,171,171,63,242.2908509,,,,,,,,242.2848983,242.7784717,243.3921239,,,,,,,,,,a,1,0.6124433,None,,,,p006,2026-04-14_14h15.40.871,Flanker Compatibility Task,,2026.1.1,119.7045692,2026-04-14 14h15.41.175104 +0800
1,square,cong,10,a,3,172,172,0,a,1,0.689844,None,,,,,0,172,172,9,243.3992254,,,,,,,,243.3934585,243.8865677,244.5839783,,,,,,,,,,a,1,0.689844,None,,,,p006,2026-04-14_14h15.40.871,Flanker Compatibility Task,,2026.1.1,119.7045692,2026-04-14 14h15.41.175104 +0800
3,diamond,incong,-10,l,5,173,173,0,l,1,0.5813097,None,,,,,0,173,173,137,244.5915216,,,,,,,,244.5854194,245.086894,245.6738724,,,,,,,,,,l,1,0.5813097,None,,,,p006,2026-04-14_14h15.40.871,Flanker Compatibility Task,,2026.1.1,119.7045692,2026-04-14 14h15.41.175104 +0800
4,diamond,cong,-10,l,1,174,174,0,l,1,1.1238937,None,,,,,0,174,174,169,245.6815522,,,,,,,,245.6749035,246.1702399,247.300288,,,,,,,,,,l,1,1.1238937,None,,,,p006,2026-04-14_14h15.40.871,Flanker Compatibility Task,,2026.1.1,119.7045692,2026-04-14 14h15.41.175104 +0800
3,diamond,cong,10,l,3,175,175,0,l,1,0.5293886,None,,,,,0,175,175,129,247.3077056,,,,,,,,247.3017089,247.8030379,248.3333896,,,,,,,,,,l,1,0.5293886,None,,,,p006,2026-04-14_14h15.40.871,Flanker Compatibility Task,,2026.1.1,119.7045692,2026-04-14 14h15.41.175104 +0800
1,square,incong,10,a,1,176,176,0,a,1,0.6087946,None,,,,,0,176,176,19,248.3395418,,,,,,,,248.3346809,248.8351684,249.4487003,,,,,,,,,,a,1,0.6087946,None,,,,p006,2026-04-14_14h15.40.871,Flanker Compatibility Task,,2026.1.1,119.7045692,2026-04-14 14h15.41.175104 +0800
4,square,cong,10,a,2,177,177,0,a,1,0.6671464,None,,,,,0,177,177,152,249.4567441,,,,,,,,249.4502115,249.9422818,250.6155393,,,,,,,,,,a,1,0.6671464,None,,,,p006,2026-04-14_14h15.40.871,Flanker Compatibility Task,,2026.1.1,119.7045692,2026-04-14 14h15.41.175104 +0800
2,square,cong,-10,a,1,178,178,0,a,1,0.4727284,None,,,,,0,178,178,49,250.6228177,,,,,,,,250.6167607,251.1102555,251.5897501,,,,,,,,,,a,1,0.4727284,None,,,,p006,2026-04-14_14h15.40.871,Flanker Compatibility Task,,2026.1.1,119.7045692,2026-04-14 14h15.41.175104 +0800
1,square,incong,-10,a,5,179,179,0,a,1,0.5214704,None,,,,,0,179,179,17,251.5975509,,,,,,,,251.5908713,252.0841134,252.6067414,,,,,,,,,,a,1,0.5214704,None,,,,p006,2026-04-14_14h15.40.871,Flanker Compatibility Task,,2026.1.1,119.7045692,2026-04-14 14h15.41.175104 +0800
3,square,incong,-10,a,0,180,180,0,a,1,0.4682249,None,,,,,0,180,180,108,252.6141759,,,,,,,,252.6081384,253.1009722,253.5728949,,,,,,,,,,a,1,0.4682249,None,,,,p006,2026-04-14_14h15.40.871,Flanker Compatibility Task,,2026.1.1,119.7045692,2026-04-14 14h15.41.175104 +0800
2,diamond,incong,10,l,2,181,181,0,l,1,0.4255789,None,,,,,0,181,181,92,253.5805881,,,,,,,,253.5740549,254.0730693,254.499418,,,,,,,,,,l,1,0.4255789,None,,,,p006,2026-04-14_14h15.40.871,Flanker Compatibility Task,,2026.1.1,119.7045692,2026-04-14 14h15.41.175104 +0800
2,square,incong,-10,a,5,182,182,0,a,1,0.504414,None,,,,,0,182,182,65,254.5059887,,,,,,,,254.5008096,255.0014007,255.506913,,,,,,,,,,a,1,0.504414,None,,,,p006,2026-04-14_14h15.40.871,Flanker Compatibility Task,,2026.1.1,119.7045692,2026-04-14 14h15.41.175104 +0800
1,square,cong,10,a,1,183,183,0,a,1,0.533111,None,,,,,0,183,183,7,255.5133438,,,,,,,,255.508144,256.0067654,256.5467185,,,,,,,,,,a,1,0.533111,None,,,,p006,2026-04-14_14h15.40.871,Flanker Compatibility Task,,2026.1.1,119.7045692,2026-04-14 14h15.41.175104 +0800
4,square,cong,-10,a,1,184,184,0,a,1,0.9279701,None,,,,,0,184,184,145,256.5540137,,,,,,,,256.5478931,257.041941,257.9728012,,,,,,,,,,a,1,0.9279701,None,,,,p006,2026-04-14_14h15.40.871,Flanker Compatibility Task,,2026.1.1,119.7045692,2026-04-14 14h15.41.175104 +0800
1,diamond,cong,-10,l,1,185,185,0,l,1,0.6515985,None,,,,,0,185,185,25,257.9793486,,,,,,,,257.974189,258.4723423,259.1296377,,,,,,,,,,l,1,0.6515985,None,,,,p006,2026-04-14_14h15.40.871,Flanker Compatibility Task,,2026.1.1,119.7045692,2026-04-14 14h15.41.175104 +0800
2,diamond,incong,-10,l,5,186,186,0,l,1,0.7856244,None,,,,,0,186,186,89,259.1373194,,,,,,,,259.1309186,259.6229711,260.4138015,,,,,,,,,,l,1,0.7856244,None,,,,p006,2026-04-14_14h15.40.871,Flanker Compatibility Task,,2026.1.1,119.7045692,2026-04-14 14h15.41.175104 +0800
4,diamond,incong,10,l,4,187,187,0,l,1,1.1937881,None,,,,,0,187,187,190,260.4197789,,,,,,,,260.4148987,260.9088706,262.1041031,,,,,,,,,,l,1,1.1937881,None,,,,p006,2026-04-14_14h15.40.871,Flanker Compatibility Task,,2026.1.1,119.7045692,2026-04-14 14h15.41.175104 +0800
2,diamond,cong,10,l,0,188,188,0,l,1,0.6650544,None,,,,,0,188,188,78,262.1120342,,,,,,,,262.1053526,262.598648,263.2696333,,,,,,,,,,l,1,0.6650544,None,,,,p006,2026-04-14_14h15.40.871,Flanker Compatibility Task,,2026.1.1,119.7045692,2026-04-14 14h15.41.175104 +0800
1,diamond,cong,-10,l,2,189,189,0,l,1,0.5075137,None,,,,,0,189,189,26,263.2772665,,,,,,,,263.2708257,263.76403,264.2784949,,,,,,,,,,l,1,0.5075137,None,,,,p006,2026-04-14_14h15.40.871,Flanker Compatibility Task,,2026.1.1,119.7045692,2026-04-14 14h15.41.175104 +0800
2,diamond,incong,10,l,5,190,190,0,l,1,0.6993086,None,,,,,0,190,190,95,264.2869577,,,,,,,,264.2797219,264.772827,265.4780319,,,,,,,,,,l,1,0.6993086,None,,,,p006,2026-04-14_14h15.40.871,Flanker Compatibility Task,,2026.1.1,119.7045692,2026-04-14 14h15.41.175104 +0800
3,diamond,incong,-10,l,2,191,191,0,l,1,0.6457494,None,,,,,0,191,191,134,265.4857948,,,,,,,,265.4793929,265.9734878,266.6270566,,,,,,,,,,l,1,0.6457494,None,,,,p006,2026-04-14_14h15.40.871,Flanker Compatibility Task,,2026.1.1,119.7045692,2026-04-14 14h15.41.175104 +0800
,,,,,,,,,,,,,,,,,,,,,,,,,,,,,,,,,,,,,,,,,,,,,266.6272471,276.6257603,None,p006,2026-04-14_14h15.40.871,Flanker Compatibility Task,,2026.1.1,119.7045692,2026-04-14 14h15.41.175104 +0800
