difficulty,target_type,compatibility,dist_pos_x,ans,target_idx,thisN,thisTrialN,thisRepN,Anskey.keys,Anskey.corr,Anskey.rt,Anskey.duration,Prac_Loop.thisRepN,Prac_Loop.thisTrialN,Prac_Loop.thisN,Prac_Loop.thisIndex,Trials_Loop.thisRepN,Trials_Loop.thisTrialN,Trials_Loop.thisN,Trials_Loop.thisIndex,thisRow.t,notes,piloting,Intro.started,Intro.stopped,Intro_keyresp.keys,Intro_keyresp.rt,Intro_keyresp.duration,Trial_Routine.started,Anskey.started,Trial_Routine.stopped,Prac_Loop.Anskey.keys,Prac_Loop.Anskey.corr,Prac_Loop.Anskey.rt,Prac_Loop.Anskey.duration,Ready.started,Ready.stopped,Ready_keyresp.keys,Ready_keyresp.rt,Ready_keyresp.duration,Trials_Loop.Anskey.keys,Trials_Loop.Anskey.corr,Trials_Loop.Anskey.rt,Trials_Loop.Anskey.duration,ThankYou.started,ThankYou.stopped,Thanks_keyresp.keys,Thanks_keyresp.rt,Thanks_keyresp.duration,participant,date,expName,expVersion,psychopyVersion,frameRate,expStart
,,,,,,,,,,,,,,,,,,,,,,,FALSE,0.0026756,3.6524413999868557,space,3.143662799964659,None,,,,,,,,,,,,,,,,,,,,,,p007,2026-04-14_14h32.54.461,Flanker Compatibility Task,,2026.1.1,120.28121749945075,2026-04-14 14h32.54.754394 +0800
1,diamond,cong,10,l,0,0,0,0,l,1,0.5702880999888293,None,0,0,0,2,,,,,3.679564099991694,,,,,,,,3.6684582000016235,4.152738799981307,4.725230299984105,l,1,0.5702880999888293,None,,,,,,,,,,,,,,,p007,2026-04-14_14h32.54.461,Flanker Compatibility Task,,2026.1.1,120.28121749945075,2026-04-14 14h32.54.754394 +0800
1,square,cong,-10,a,1,1,1,0,a,1,0.41903749998891726,None,0,1,1,0,,,,,4.732111899997108,,,,,,,,4.7264913999824785,5.220212400017772,5.642426599981263,a,1,0.41903749998891726,None,,,,,,,,,,,,,,,p007,2026-04-14_14h32.54.461,Flanker Compatibility Task,,2026.1.1,120.28121749945075,2026-04-14 14h32.54.754394 +0800
2,square,incong,-10,a,2,2,2,0,a,1,0.9830171000212431,None,0,2,2,5,,,,,5.649244099971838,,,,,,,,5.643764699983876,6.1435637,7.132143399969209,a,1,0.9830171000212431,None,,,,,,,,,,,,,,,p007,2026-04-14_14h32.54.461,Flanker Compatibility Task,,2026.1.1,120.28121749945075,2026-04-14 14h32.54.754394 +0800
4,square,cong,10,a,5,3,3,0,a,1,0.8451448000269011,None,0,3,3,12,,,,,7.139931600017007,,,,,,,,7.1332569000078365,7.625692399975378,8.473873800016008,a,1,0.8451448000269011,None,,,,,,,,,,,,,,,p007,2026-04-14_14h32.54.461,Flanker Compatibility Task,,2026.1.1,120.28121749945075,2026-04-14 14h32.54.754394 +0800
1,diamond,incong,-10,l,5,4,4,0,l,1,0.5832531999913044,None,0,4,4,3,,,,,8.481268799980171,,,,,,,,8.474854999978561,8.974901799985673,9.564783399982844,l,1,0.5832531999913044,None,,,,,,,,,,,,,,,p007,2026-04-14_14h32.54.461,Flanker Compatibility Task,,2026.1.1,120.28121749945075,2026-04-14 14h32.54.754394 +0800
3,diamond,incong,-10,l,4,5,5,0,l,1,0.8913912000134587,None,0,5,5,11,,,,,9.5724821,,,,,,,,9.566158999979962,10.060812000010628,10.95666159997927,l,1,0.8913912000134587,None,,,,,,,,,,,,,,,p007,2026-04-14_14h32.54.461,Flanker Compatibility Task,,2026.1.1,120.28121749945075,2026-04-14 14h32.54.754394 +0800
2,diamond,incong,10,l,0,6,6,0,l,1,0.48848520003957674,None,0,6,6,7,,,,,10.964046699984465,,,,,,,,10.95793799997773,11.45752860000357,11.9478788,l,1,0.48848520003957674,None,,,,,,,,,,,,,,,p007,2026-04-14_14h32.54.461,Flanker Compatibility Task,,2026.1.1,120.28121749945075,2026-04-14 14h32.54.754394 +0800
2,diamond,cong,-10,l,3,7,7,0,l,1,0.6400679,None,0,7,7,6,,,,,11.955449300003238,,,,,,,,11.949033099983353,12.442316600005142,13.08886399999028,l,1,0.6400679,None,,,,,,,,,,,,,,,p007,2026-04-14_14h32.54.461,Flanker Compatibility Task,,2026.1.1,120.28121749945075,2026-04-14 14h32.54.754394 +0800
2,square,cong,10,a,5,8,8,0,a,1,0.6176323999534361,None,0,8,8,4,,,,,13.096747900010087,,,,,,,,13.090156799997203,13.58486369997263,14.205981499981135,a,1,0.6176323999534361,None,,,,,,,,,,,,,,,p007,2026-04-14_14h32.54.461,Flanker Compatibility Task,,2026.1.1,120.28121749945075,2026-04-14 14h32.54.754394 +0800
3,square,incong,10,a,5,9,9,0,a,1,0.6195806000032462,None,0,9,9,9,,,,,14.213179900019895,,,,,,,,14.2072434,14.706962500000373,15.330332599987742,a,1,0.6195806000032462,None,,,,,,,,,,,,,,,p007,2026-04-14_14h32.54.461,Flanker Compatibility Task,,2026.1.1,120.28121749945075,2026-04-14 14h32.54.754394 +0800
1,square,incong,10,a,3,10,10,0,a,1,0.5213288000086322,None,0,10,10,1,,,,,15.3379064,,,,,,,,15.331522100022994,15.833672699984163,16.35600109997904,a,1,0.5213288000086322,None,,,,,,,,,,,,,,,p007,2026-04-14_14h32.54.461,Flanker Compatibility Task,,2026.1.1,120.28121749945075,2026-04-14 14h32.54.754394 +0800
4,square,incong,-10,a,1,11,11,0,a,1,0.7001507999957539,None,0,11,11,13,,,,,16.3626691,,,,,,,,16.357573800021783,16.85080710001057,17.556535299983807,a,1,0.7001507999957539,None,,,,,,,,,,,,,,,p007,2026-04-14_14h32.54.461,Flanker Compatibility Task,,2026.1.1,120.28121749945075,2026-04-14 14h32.54.754394 +0800
3,diamond,cong,10,l,1,12,12,0,l,1,0.7025086000212468,None,0,12,12,10,,,,,17.562986999982968,,,,,,,,17.558131899975706,18.059124100022018,18.76256210001884,l,1,0.7025086000212468,None,,,,,,,,,,,,,,,p007,2026-04-14_14h32.54.461,Flanker Compatibility Task,,2026.1.1,120.28121749945075,2026-04-14 14h32.54.754394 +0800
4,diamond,incong,10,l,2,13,13,0,l,1,1.4333863000501879,None,0,13,13,15,,,,,18.770404800015967,,,,,,,,18.764136300014798,19.256470599968452,20.6938996,l,1,1.4333863000501879,None,,,,,,,,,,,,,,,p007,2026-04-14_14h32.54.461,Flanker Compatibility Task,,2026.1.1,120.28121749945075,2026-04-14 14h32.54.754394 +0800
4,diamond,cong,-10,l,4,14,14,0,l,1,0.7062063000048511,None,0,14,14,14,,,,,20.70108169998275,,,,,,,,20.695359600009397,21.194371399993543,21.901834800024517,l,1,0.7062063000048511,None,,,,,,,,,,,,,,,p007,2026-04-14_14h32.54.461,Flanker Compatibility Task,,2026.1.1,120.28121749945075,2026-04-14 14h32.54.754394 +0800
3,square,cong,-10,a,1,15,15,0,a,1,0.5173977999947965,None,0,15,15,8,,,,,21.908993099990766,,,,,,,,21.90283959999215,22.396302599983755,22.91906529996777,a,1,0.5173977999947965,None,,,,,,,,,,,,,,,p007,2026-04-14_14h32.54.461,Flanker Compatibility Task,,2026.1.1,120.28121749945075,2026-04-14 14h32.54.754394 +0800
,,,,,,,,,,,,,,,,,,,,,,,,,,,,,,,,,,,,22.919290099991485,39.95520829997258,space,16.540067599969916,None,,,,,,,,,,p007,2026-04-14_14h32.54.461,Flanker Compatibility Task,,2026.1.1,120.28121749945075,2026-04-14 14h32.54.754394 +0800
3,square,cong,10,a,1,0,0,0,a,1,0.5851071000215597,None,,,,,0,0,0,103,40.00205359997926,,,,,,,,39.99872650002362,40.44985460001044,41.03967680002097,,,,,,,,,,a,1,0.5851071000215597,None,,,,,,p007,2026-04-14_14h32.54.461,Flanker Compatibility Task,,2026.1.1,120.28121749945075,2026-04-14 14h32.54.754394 +0800
2,diamond,incong,-10,l,4,1,1,0,l,1,0.6228244000230916,None,,,,,0,1,1,88,41.046362399996724,,,,,,,,41.04100979998475,41.53382989997044,42.16333269997267,,,,,,,,,,l,1,0.6228244000230916,None,,,,,,p007,2026-04-14_14h32.54.461,Flanker Compatibility Task,,2026.1.1,120.28121749945075,2026-04-14 14h32.54.754394 +0800
2,diamond,incong,-10,l,3,2,2,0,l,1,0.6527266000048257,None,,,,,0,2,2,87,42.171268599980976,,,,,,,,42.164592600020114,42.65875750000123,43.31437330000335,,,,,,,,,,l,1,0.6527266000048257,None,,,,,,p007,2026-04-14_14h32.54.461,Flanker Compatibility Task,,2026.1.1,120.28121749945075,2026-04-14 14h32.54.754394 +0800
1,square,incong,10,a,5,3,3,0,a,1,0.5398699999786913,None,,,,,0,3,3,23,43.3217267,,,,,,,,43.315675999969244,43.816532099968754,44.36300850001862,,,,,,,,,,a,1,0.5398699999786913,None,,,,,,p007,2026-04-14_14h32.54.461,Flanker Compatibility Task,,2026.1.1,120.28121749945075,2026-04-14 14h32.54.754394 +0800
3,diamond,cong,10,l,4,4,4,0,l,1,0.7077623999794014,None,,,,,0,4,4,130,44.3709098,,,,,,,,44.36412520002341,44.85934520000592,45.57046499999706,,,,,,,,,,l,1,0.7077623999794014,None,,,,,,p007,2026-04-14_14h32.54.461,Flanker Compatibility Task,,2026.1.1,120.28121749945075,2026-04-14 14h32.54.754394 +0800
4,square,incong,10,a,4,5,5,0,a,1,0.5481047999928705,None,,,,,0,5,5,166,45.57806069997605,,,,,,,,45.571542699995916,46.06703620002372,46.62133300001733,,,,,,,,,,a,1,0.5481047999928705,None,,,,,,p007,2026-04-14_14h32.54.461,Flanker Compatibility Task,,2026.1.1,120.28121749945075,2026-04-14 14h32.54.754394 +0800
2,square,cong,10,a,5,6,6,0,a,1,0.4178589999792166,None,,,,,0,6,6,59,46.62917769997148,,,,,,,,46.622579400020186,47.116291899990756,47.53786859998945,,,,,,,,,,a,1,0.4178589999792166,None,,,,,,p007,2026-04-14_14h32.54.461,Flanker Compatibility Task,,2026.1.1,120.28121749945075,2026-04-14 14h32.54.754394 +0800
4,square,incong,-10,a,1,7,7,0,a,1,0.5695259000058286,None,,,,,0,7,7,157,47.54510320001282,,,,,,,,47.539337199996226,48.03763929998968,48.611463900015224,,,,,,,,,,a,1,0.5695259000058286,None,,,,,,p007,2026-04-14_14h32.54.461,Flanker Compatibility Task,,2026.1.1,120.28121749945075,2026-04-14 14h32.54.754394 +0800
3,diamond,incong,10,l,5,8,8,0,l,1,0.5894571000244468,None,,,,,0,8,8,143,48.61921809997875,,,,,,,,48.61281640001107,49.10529019997921,49.69556800002465,,,,,,,,,,l,1,0.5894571000244468,None,,,,,,p007,2026-04-14_14h32.54.461,Flanker Compatibility Task,,2026.1.1,120.28121749945075,2026-04-14 14h32.54.754394 +0800
3,diamond,incong,-10,l,5,9,9,0,l,1,0.5537059000344016,None,,,,,0,9,9,137,49.70276999997441,,,,,,,,49.69690530002117,50.19014409999363,50.74563540000236,,,,,,,,,,l,1,0.5537059000344016,None,,,,,,p007,2026-04-14_14h32.54.461,Flanker Compatibility Task,,2026.1.1,120.28121749945075,2026-04-14 14h32.54.754394 +0800
4,square,cong,10,a,0,10,10,0,l,0,0.6736868000007235,None,,,,,0,10,10,150,50.75201070000185,,,,,,,,50.747116999991704,51.245254300010856,51.91986819996964,,,,,,,,,,l,0,0.6736868000007235,None,,,,,,p007,2026-04-14_14h32.54.461,Flanker Compatibility Task,,2026.1.1,120.28121749945075,2026-04-14 14h32.54.754394 +0800
1,diamond,cong,-10,l,4,11,11,0,l,1,0.5918048999737948,None,,,,,0,11,11,28,51.927404000016395,,,,,,,,51.92103560001124,52.414486499968916,53.01166269998066,,,,,,,,,,l,1,0.5918048999737948,None,,,,,,p007,2026-04-14_14h32.54.461,Flanker Compatibility Task,,2026.1.1,120.28121749945075,2026-04-14 14h32.54.754394 +0800
3,diamond,incong,-10,l,3,12,12,0,l,1,0.7603827000129968,None,,,,,0,12,12,135,53.01887959998567,,,,,,,,53.013127900019754,53.506472899985965,54.268401800014544,,,,,,,,,,l,1,0.7603827000129968,None,,,,,,p007,2026-04-14_14h32.54.461,Flanker Compatibility Task,,2026.1.1,120.28121749945075,2026-04-14 14h32.54.754394 +0800
1,square,cong,-10,a,0,13,13,0,a,1,0.4184701999765821,None,,,,,0,13,13,0,54.27624849998392,,,,,,,,54.26954760000808,54.76220659998944,55.18614190001972,,,,,,,,,,a,1,0.4184701999765821,None,,,,,,p007,2026-04-14_14h32.54.461,Flanker Compatibility Task,,2026.1.1,120.28121749945075,2026-04-14 14h32.54.754394 +0800
4,square,incong,-10,a,4,14,14,0,a,1,0.45974569994723424,None,,,,,0,14,14,160,55.19312239997089,,,,,,,,55.187586100015324,55.68537349998951,56.15187409997452,,,,,,,,,,a,1,0.45974569994723424,None,,,,,,p007,2026-04-14_14h32.54.461,Flanker Compatibility Task,,2026.1.1,120.28121749945075,2026-04-14 14h32.54.754394 +0800
1,square,incong,-10,a,5,15,15,0,a,1,0.42761369998333976,None,,,,,0,15,15,17,56.160006600024644,,,,,,,,56.15306540002348,56.644518200017046,57.07657689996995,,,,,,,,,,a,1,0.42761369998333976,None,,,,,,p007,2026-04-14_14h32.54.461,Flanker Compatibility Task,,2026.1.1,120.28121749945075,2026-04-14 14h32.54.754394 +0800
3,diamond,cong,-10,l,4,16,16,0,l,1,0.6013921999838203,None,,,,,0,16,16,124,57.08434070000658,,,,,,,,57.077659200003836,57.570755399996415,58.17731020000065,,,,,,,,,,l,1,0.6013921999838203,None,,,,,,p007,2026-04-14_14h32.54.461,Flanker Compatibility Task,,2026.1.1,120.28121749945075,2026-04-14 14h32.54.754394 +0800
4,square,cong,10,a,4,17,17,0,a,1,0.46215249999659136,None,,,,,0,17,17,154,58.18337759998394,,,,,,,,58.17860520002432,58.67888869997114,59.14403389999643,,,,,,,,,,a,1,0.46215249999659136,None,,,,,,p007,2026-04-14_14h32.54.461,Flanker Compatibility Task,,2026.1.1,120.28121749945075,2026-04-14 14h32.54.754394 +0800
4,square,incong,10,a,1,18,18,0,a,1,0.4502187999896705,None,,,,,0,18,18,163,59.15083409997169,,,,,,,,59.14560089999577,59.643715400015935,60.100874299998395,,,,,,,,,,a,1,0.4502187999896705,None,,,,,,p007,2026-04-14_14h32.54.461,Flanker Compatibility Task,,2026.1.1,120.28121749945075,2026-04-14 14h32.54.754394 +0800
2,square,cong,-10,a,2,19,19,0,a,1,0.5351229999796487,None,,,,,0,19,19,50,60.109046900004614,,,,,,,,60.102121700008865,60.59220949996961,61.133749999979045,,,,,,,,,,a,1,0.5351229999796487,None,,,,,,p007,2026-04-14_14h32.54.461,Flanker Compatibility Task,,2026.1.1,120.28121749945075,2026-04-14 14h32.54.754394 +0800
3,square,incong,10,a,3,20,20,0,a,1,0.5757460999884643,None,,,,,0,20,20,117,61.14266630000202,,,,,,,,61.13529349997407,61.636869099980686,62.21711079997476,,,,,,,,,,a,1,0.5757460999884643,None,,,,,,p007,2026-04-14_14h32.54.461,Flanker Compatibility Task,,2026.1.1,120.28121749945075,2026-04-14 14h32.54.754394 +0800
2,square,incong,10,a,3,21,21,0,a,1,0.4216267999727279,None,,,,,0,21,21,69,62.22506299999077,,,,,,,,62.218324000015855,62.719894299982116,63.14959779998753,,,,,,,,,,a,1,0.4216267999727279,None,,,,,,p007,2026-04-14_14h32.54.461,Flanker Compatibility Task,,2026.1.1,120.28121749945075,2026-04-14 14h32.54.754394 +0800
1,square,incong,10,a,4,22,22,0,a,1,0.46474369999486953,None,,,,,0,22,22,22,63.15724739996949,,,,,,,,63.15088410000317,63.643342299968936,64.1091944,,,,,,,,,,a,1,0.46474369999486953,None,,,,,,p007,2026-04-14_14h32.54.461,Flanker Compatibility Task,,2026.1.1,120.28121749945075,2026-04-14 14h32.54.754394 +0800
3,square,incong,10,a,1,23,23,0,a,1,0.5264795000548474,None,,,,,0,23,23,115,64.11512159998529,,,,,,,,64.11048989999108,64.60958089999622,65.14137389999814,,,,,,,,,,a,1,0.5264795000548474,None,,,,,,p007,2026-04-14_14h32.54.461,Flanker Compatibility Task,,2026.1.1,120.28121749945075,2026-04-14 14h32.54.754394 +0800
2,diamond,cong,-10,l,4,24,24,0,l,1,0.5462213999708183,None,,,,,0,24,24,76,65.14890259999083,,,,,,,,65.1423626,65.64240750001045,66.1907302,,,,,,,,,,l,1,0.5462213999708183,None,,,,,,p007,2026-04-14_14h32.54.461,Flanker Compatibility Task,,2026.1.1,120.28121749945075,2026-04-14 14h32.54.754394 +0800
2,square,cong,10,a,4,25,25,0,a,1,0.501644,None,,,,,0,25,25,58,66.19830119999824,,,,,,,,66.19170349999331,66.6905147,67.19880730001023,,,,,,,,,,a,1,0.501644,None,,,,,,p007,2026-04-14_14h32.54.461,Flanker Compatibility Task,,2026.1.1,120.28121749945075,2026-04-14 14h32.54.754394 +0800
1,square,cong,10,a,4,26,26,0,a,1,0.5489064,None,,,,,0,26,26,10,67.20618610002566,,,,,,,,67.19957519997843,67.69099490001099,68.2407588,,,,,,,,,,a,1,0.5489064,None,,,,,,p007,2026-04-14_14h32.54.461,Flanker Compatibility Task,,2026.1.1,120.28121749945075,2026-04-14 14h32.54.754394 +0800
3,diamond,incong,10,l,1,27,27,0,l,1,0.6131095999735408,None,,,,,0,27,27,139,68.24831539997831,,,,,,,,68.24208960001124,68.73699090001173,69.35657519998495,,,,,,,,,,l,1,0.6131095999735408,None,,,,,,p007,2026-04-14_14h32.54.461,Flanker Compatibility Task,,2026.1.1,120.28121749945075,2026-04-14 14h32.54.754394 +0800
3,square,incong,10,a,4,28,28,0,a,1,0.4720079000107944,None,,,,,0,28,28,118,69.36412629997358,,,,,,,,69.35768090002239,69.85250079998514,70.3253962,,,,,,,,,,a,1,0.4720079000107944,None,,,,,,p007,2026-04-14_14h32.54.461,Flanker Compatibility Task,,2026.1.1,120.28121749945075,2026-04-14 14h32.54.754394 +0800
2,square,cong,-10,a,3,29,29,0,a,1,0.41401790000963956,None,,,,,0,29,29,51,70.33170560002327,,,,,,,,70.32671180000762,70.82704040000681,71.24906579998787,,,,,,,,,,a,1,0.41401790000963956,None,,,,,,p007,2026-04-14_14h32.54.461,Flanker Compatibility Task,,2026.1.1,120.28121749945075,2026-04-14 14h32.54.754394 +0800
2,square,cong,10,a,0,30,30,0,a,1,0.4187036,None,,,,,0,30,30,54,71.25691389996791,,,,,,,,71.25041430001147,71.75208010000642,72.17400529998122,,,,,,,,,,a,1,0.4187036,None,,,,,,p007,2026-04-14_14h32.54.461,Flanker Compatibility Task,,2026.1.1,120.28121749945075,2026-04-14 14h32.54.754394 +0800
3,square,incong,-10,a,4,31,31,0,a,1,0.4548062999965623,None,,,,,0,31,31,112,72.18083409999963,,,,,,,,72.17544339998858,72.67663699999684,73.13907249999465,,,,,,,,,,a,1,0.4548062999965623,None,,,,,,p007,2026-04-14_14h32.54.461,Flanker Compatibility Task,,2026.1.1,120.28121749945075,2026-04-14 14h32.54.754394 +0800
1,diamond,cong,-10,l,5,32,32,0,l,1,0.4865288000437431,None,,,,,0,32,32,29,73.14690769999288,,,,,,,,73.14023010001983,73.6340337,74.12292390002403,,,,,,,,,,l,1,0.4865288000437431,None,,,,,,p007,2026-04-14_14h32.54.461,Flanker Compatibility Task,,2026.1.1,120.28121749945075,2026-04-14 14h32.54.754394 +0800
2,square,incong,10,a,1,33,33,0,a,1,0.5676996000111103,None,,,,,0,33,33,67,74.12980970001081,,,,,,,,74.1241669,74.6174087,75.18821709998883,,,,,,,,,,a,1,0.5676996000111103,None,,,,,,p007,2026-04-14_14h32.54.461,Flanker Compatibility Task,,2026.1.1,120.28121749945075,2026-04-14 14h32.54.754394 +0800
2,square,cong,10,a,1,34,34,0,a,1,0.48193549999268726,None,,,,,0,34,34,55,75.1958139,,,,,,,,75.18949590000557,75.68305360001978,76.17142989998683,,,,,,,,,,a,1,0.48193549999268726,None,,,,,,p007,2026-04-14_14h32.54.461,Flanker Compatibility Task,,2026.1.1,120.28121749945075,2026-04-14 14h32.54.754394 +0800
4,square,cong,10,a,1,35,35,0,a,1,0.6579792000120506,None,,,,,0,35,35,151,76.17974890000187,,,,,,,,76.17286880000029,76.66753929998958,77.3298326,,,,,,,,,,a,1,0.6579792000120506,None,,,,,,p007,2026-04-14_14h32.54.461,Flanker Compatibility Task,,2026.1.1,120.28121749945075,2026-04-14 14h32.54.754394 +0800
2,diamond,cong,10,l,3,36,36,0,l,1,0.5566288999980316,None,,,,,0,36,36,81,77.33732310001506,,,,,,,,77.33094339998206,77.82456739997724,78.38753479998559,,,,,,,,,,l,1,0.5566288999980316,None,,,,,,p007,2026-04-14_14h32.54.461,Flanker Compatibility Task,,2026.1.1,120.28121749945075,2026-04-14 14h32.54.754394 +0800
3,diamond,cong,-10,l,0,37,37,0,l,1,0.6937662999844179,None,,,,,0,37,37,120,78.39502870000433,,,,,,,,78.38890129997162,78.88088199996855,79.57898559997557,,,,,,,,,,l,1,0.6937662999844179,None,,,,,,p007,2026-04-14_14h32.54.461,Flanker Compatibility Task,,2026.1.1,120.28121749945075,2026-04-14 14h32.54.754394 +0800
4,square,cong,-10,a,4,38,38,0,a,1,0.5560786999994889,None,,,,,0,38,38,148,79.5866966,,,,,,,,79.58042660000501,80.07369519997155,80.63747880002484,,,,,,,,,,a,1,0.5560786999994889,None,,,,,,p007,2026-04-14_14h32.54.461,Flanker Compatibility Task,,2026.1.1,120.28121749945075,2026-04-14 14h32.54.754394 +0800
3,square,incong,-10,a,2,39,39,0,a,1,0.5382351000444032,None,,,,,0,39,39,110,80.64515820000088,,,,,,,,80.63893469999311,81.13201250002021,81.67108499997994,,,,,,,,,,a,1,0.5382351000444032,None,,,,,,p007,2026-04-14_14h32.54.461,Flanker Compatibility Task,,2026.1.1,120.28121749945075,2026-04-14 14h32.54.754394 +0800
3,square,incong,10,a,2,40,40,0,a,1,0.48982810002053156,None,,,,,0,40,40,116,81.67779109999537,,,,,,,,81.67236279998906,82.17416880000383,82.67003310000291,,,,,,,,,,a,1,0.48982810002053156,None,,,,,,p007,2026-04-14_14h32.54.461,Flanker Compatibility Task,,2026.1.1,120.28121749945075,2026-04-14 14h32.54.754394 +0800
3,diamond,cong,10,l,3,41,41,0,l,1,0.5542708,None,,,,,0,41,41,129,82.67798859998584,,,,,,,,82.67150459997356,83.16528329998255,83.72019139997428,,,,,,,,,,l,1,0.5542708,None,,,,,,p007,2026-04-14_14h32.54.461,Flanker Compatibility Task,,2026.1.1,120.28121749945075,2026-04-14 14h32.54.754394 +0800
2,diamond,cong,10,l,4,42,42,0,l,1,0.49645960005000234,None,,,,,0,42,42,82,83.72689699998591,,,,,,,,83.72150959999999,84.21346040000208,84.71086589997867,,,,,,,,,,l,1,0.49645960005000234,None,,,,,,p007,2026-04-14_14h32.54.461,Flanker Compatibility Task,,2026.1.1,120.28121749945075,2026-04-14 14h32.54.754394 +0800
2,square,cong,10,a,3,43,43,0,a,1,0.48469010001281276,None,,,,,0,43,43,57,84.71832639997592,,,,,,,,84.7119111,85.20390419999603,85.69453350000549,,,,,,,,,,a,1,0.48469010001281276,None,,,,,,p007,2026-04-14_14h32.54.461,Flanker Compatibility Task,,2026.1.1,120.28121749945075,2026-04-14 14h32.54.754394 +0800
1,square,cong,10,a,1,44,44,0,a,1,0.5136713000247255,None,,,,,0,44,44,7,85.70179560000543,,,,,,,,85.69587449997198,86.1874092,86.7025017,,,,,,,,,,a,1,0.5136713000247255,None,,,,,,p007,2026-04-14_14h32.54.461,Flanker Compatibility Task,,2026.1.1,120.28121749945075,2026-04-14 14h32.54.754394 +0800
3,diamond,cong,10,l,1,45,45,0,l,1,0.6146246999851428,None,,,,,0,45,45,127,86.71027769998182,,,,,,,,86.70395049999934,87.19823069998529,87.82021430000896,,,,,,,,,,l,1,0.6146246999851428,None,,,,,,p007,2026-04-14_14h32.54.461,Flanker Compatibility Task,,2026.1.1,120.28121749945075,2026-04-14 14h32.54.754394 +0800
2,square,cong,10,a,2,46,46,0,a,1,0.49776210001436993,None,,,,,0,46,46,56,87.82700350001687,,,,,,,,87.82150710001588,88.32113070000196,88.81973240000661,,,,,,,,,,a,1,0.49776210001436993,None,,,,,,p007,2026-04-14_14h32.54.461,Flanker Compatibility Task,,2026.1.1,120.28121749945075,2026-04-14 14h32.54.754394 +0800
1,diamond,incong,10,l,1,47,47,0,l,1,0.5792668,None,,,,,0,47,47,43,88.82621949998429,,,,,,,,88.82101999997394,89.31944170000497,89.90131159999873,,,,,,,,,,l,1,0.5792668,None,,,,,,p007,2026-04-14_14h32.54.461,Flanker Compatibility Task,,2026.1.1,120.28121749945075,2026-04-14 14h32.54.754394 +0800
4,diamond,incong,-10,l,3,48,48,0,a,0,0.5571012000436895,None,,,,,0,48,48,183,89.90927160001593,,,,,,,,89.90276319999248,90.39492940000491,90.95279289997416,,,,,,,,,,a,0,0.5571012000436895,None,,,,,,p007,2026-04-14_14h32.54.461,Flanker Compatibility Task,,2026.1.1,120.28121749945075,2026-04-14 14h32.54.754394 +0800
1,square,cong,10,a,3,49,49,0,a,1,0.4649916000198573,None,,,,,0,49,49,9,90.95903029997135,,,,,,,,90.95408799999859,91.45033580000745,91.91759500000626,,,,,,,,,,a,1,0.4649916000198573,None,,,,,,p007,2026-04-14_14h32.54.461,Flanker Compatibility Task,,2026.1.1,120.28121749945075,2026-04-14 14h32.54.754394 +0800
3,square,cong,-10,a,2,50,50,0,a,1,0.4530873000039719,None,,,,,0,50,50,98,91.92509580001934,,,,,,,,91.91847909998614,92.41301800002111,92.86714709998341,,,,,,,,,,a,1,0.4530873000039719,None,,,,,,p007,2026-04-14_14h32.54.461,Flanker Compatibility Task,,2026.1.1,120.28121749945075,2026-04-14 14h32.54.754394 +0800
4,square,incong,10,a,3,51,51,0,a,1,0.48290470003848895,None,,,,,0,51,51,165,92.87484669999685,,,,,,,,92.8686061,93.36157130001811,93.85018140001921,,,,,,,,,,a,1,0.48290470003848895,None,,,,,,p007,2026-04-14_14h32.54.461,Flanker Compatibility Task,,2026.1.1,120.28121749945075,2026-04-14 14h32.54.754394 +0800
4,square,incong,-10,a,2,52,52,0,a,1,0.4493576000095345,None,,,,,0,52,52,158,93.85774639999727,,,,,,,,93.85172169998987,94.34452400001464,94.80017060000682,,,,,,,,,,a,1,0.4493576000095345,None,,,,,,p007,2026-04-14_14h32.54.461,Flanker Compatibility Task,,2026.1.1,120.28121749945075,2026-04-14 14h32.54.754394 +0800
3,diamond,cong,-10,l,2,53,53,0,l,1,0.6566838000435382,None,,,,,0,53,53,122,94.80771959997946,,,,,,,,94.8011833,95.29950049996842,95.95808770001167,,,,,,,,,,l,1,0.6566838000435382,None,,,,,,p007,2026-04-14_14h32.54.461,Flanker Compatibility Task,,2026.1.1,120.28121749945075,2026-04-14 14h32.54.754394 +0800
2,diamond,incong,-10,l,1,54,54,0,l,1,0.6644724999787286,None,,,,,0,54,54,85,95.96567299996968,,,,,,,,95.95933859999059,96.45099410001421,97.11711390002165,,,,,,,,,,l,1,0.6644724999787286,None,,,,,,p007,2026-04-14_14h32.54.461,Flanker Compatibility Task,,2026.1.1,120.28121749945075,2026-04-14 14h32.54.754394 +0800
2,diamond,cong,10,l,5,55,55,0,l,1,0.5503399,None,,,,,0,55,55,83,97.12437809997937,,,,,,,,97.11843450000742,97.61787249997724,98.17413010000018,,,,,,,,,,l,1,0.5503399,None,,,,,,p007,2026-04-14_14h32.54.461,Flanker Compatibility Task,,2026.1.1,120.28121749945075,2026-04-14 14h32.54.754394 +0800
4,diamond,cong,10,l,3,56,56,0,l,1,0.6116827999940142,None,,,,,0,56,56,177,98.18234389997087,,,,,,,,98.17560770001728,98.67054299998563,99.28292530000908,,,,,,,,,,l,1,0.6116827999940142,None,,,,,,p007,2026-04-14_14h32.54.461,Flanker Compatibility Task,,2026.1.1,120.28121749945075,2026-04-14 14h32.54.754394 +0800
2,square,cong,-10,a,1,57,57,0,a,1,0.5087271,None,,,,,0,57,57,49,99.28990510001313,,,,,,,,99.28453409997746,99.77702129998943,100.29062719998183,,,,,,,,,,a,1,0.5087271,None,,,,,,p007,2026-04-14_14h32.54.461,Flanker Compatibility Task,,2026.1.1,120.28121749945075,2026-04-14 14h32.54.754394 +0800
4,diamond,cong,-10,l,1,58,58,0,l,1,0.9817796000279486,None,,,,,0,58,58,169,100.2988879000186,,,,,,,,100.29210479999892,100.78719770000316,101.7748552999692,,,,,,,,,,l,1,0.9817796000279486,None,,,,,,p007,2026-04-14_14h32.54.461,Flanker Compatibility Task,,2026.1.1,120.28121749945075,2026-04-14 14h32.54.754394 +0800
2,square,incong,10,a,0,59,59,0,a,1,0.5142307999776676,None,,,,,0,59,59,66,101.78188229998341,,,,,,,,101.7760953999823,102.2766791000031,102.79182189999847,,,,,,,,,,a,1,0.5142307999776676,None,,,,,,p007,2026-04-14_14h32.54.461,Flanker Compatibility Task,,2026.1.1,120.28121749945075,2026-04-14 14h32.54.754394 +0800
4,diamond,incong,-10,l,4,60,60,0,l,1,0.7591060000122525,None,,,,,0,60,60,184,102.7983499999973,,,,,,,,102.793807,103.29383069998585,104.05724960000953,,,,,,,,,,l,1,0.7591060000122525,None,,,,,,p007,2026-04-14_14h32.54.461,Flanker Compatibility Task,,2026.1.1,120.28121749945075,2026-04-14 14h32.54.754394 +0800
2,diamond,incong,10,l,4,61,61,0,l,1,0.5046160000492819,None,,,,,0,61,61,94,104.06394189997809,,,,,,,,104.0585658,104.55981190002058,105.07278859999496,,,,,,,,,,l,1,0.5046160000492819,None,,,,,,p007,2026-04-14_14h32.54.461,Flanker Compatibility Task,,2026.1.1,120.28121749945075,2026-04-14 14h32.54.754394 +0800
2,diamond,cong,-10,l,1,62,62,0,l,1,0.4609321000170894,None,,,,,0,62,62,73,105.08068389998516,,,,,,,,105.07412469998235,105.5666108999867,106.03066799999215,,,,,,,,,,l,1,0.4609321000170894,None,,,,,,p007,2026-04-14_14h32.54.461,Flanker Compatibility Task,,2026.1.1,120.28121749945075,2026-04-14 14h32.54.754394 +0800
2,diamond,cong,-10,l,3,63,63,0,l,1,0.45552900002803653,None,,,,,0,63,63,75,106.03813499998068,,,,,,,,106.0319187999703,106.52338099997723,106.98086259997217,,,,,,,,,,l,1,0.45552900002803653,None,,,,,,p007,2026-04-14_14h32.54.461,Flanker Compatibility Task,,2026.1.1,120.28121749945075,2026-04-14 14h32.54.754394 +0800
4,diamond,incong,10,l,4,64,64,0,l,1,0.7390531999990344,None,,,,,0,64,64,190,106.98875560000306,,,,,,,,106.98215210001217,107.48079589998815,108.22185520001221,,,,,,,,,,l,1,0.7390531999990344,None,,,,,,p007,2026-04-14_14h32.54.461,Flanker Compatibility Task,,2026.1.1,120.28121749945075,2026-04-14 14h32.54.754394 +0800
2,diamond,incong,10,l,3,65,65,0,l,1,0.43495339999208227,None,,,,,0,65,65,93,108.22998579998966,,,,,,,,108.22305680002319,108.72383390000323,109.16332260001218,,,,,,,,,,l,1,0.43495339999208227,None,,,,,,p007,2026-04-14_14h32.54.461,Flanker Compatibility Task,,2026.1.1,120.28121749945075,2026-04-14 14h32.54.754394 +0800
2,diamond,cong,-10,l,5,66,66,0,l,1,0.4522624000092037,None,,,,,0,66,66,77,109.17125630000373,,,,,,,,109.1645193999866,109.66373949998524,110.1210873000091,,,,,,,,,,l,1,0.4522624000092037,None,,,,,,p007,2026-04-14_14h32.54.461,Flanker Compatibility Task,,2026.1.1,120.28121749945075,2026-04-14 14h32.54.754394 +0800
3,square,cong,-10,a,1,67,67,0,a,1,0.4728926,None,,,,,0,67,67,97,110.12986169999931,,,,,,,,110.12249480001628,110.6138634,111.08820519997971,,,,,,,,,,a,1,0.4728926,None,,,,,,p007,2026-04-14_14h32.54.461,Flanker Compatibility Task,,2026.1.1,120.28121749945075,2026-04-14 14h32.54.754394 +0800
3,diamond,incong,-10,l,0,68,68,0,l,1,0.6105694000143558,None,,,,,0,68,68,132,111.09530159999849,,,,,,,,111.0897034999798,111.58357780001825,112.19568140001502,,,,,,,,,,l,1,0.6105694000143558,None,,,,,,p007,2026-04-14_14h32.54.461,Flanker Compatibility Task,,2026.1.1,120.28121749945075,2026-04-14 14h32.54.754394 +0800
4,square,incong,-10,a,3,69,69,0,a,1,0.6645105,None,,,,,0,69,69,159,112.2038258999819,,,,,,,,112.19713340001181,112.69175519997953,113.36255479999818,,,,,,,,,,a,1,0.6645105,None,,,,,,p007,2026-04-14_14h32.54.461,Flanker Compatibility Task,,2026.1.1,120.28121749945075,2026-04-14 14h32.54.754394 +0800
3,diamond,cong,10,l,0,70,70,0,l,1,0.7880195,None,,,,,0,70,70,126,113.37090669997269,,,,,,,,113.36393980000867,113.85790840000845,114.64661830000114,,,,,,,,,,l,1,0.7880195,None,,,,,,p007,2026-04-14_14h32.54.461,Flanker Compatibility Task,,2026.1.1,120.28121749945075,2026-04-14 14h32.54.754394 +0800
1,square,incong,-10,a,0,71,71,0,a,1,0.4958770999801345,None,,,,,0,71,71,12,114.6527333999984,,,,,,,,114.64776630001143,115.14807900000596,115.64490399998613,,,,,,,,,,a,1,0.4958770999801345,None,,,,,,p007,2026-04-14_14h32.54.461,Flanker Compatibility Task,,2026.1.1,120.28121749945075,2026-04-14 14h32.54.754394 +0800
1,diamond,cong,10,l,5,72,72,0,l,1,0.6430209999671206,None,,,,,0,72,72,35,115.65274539997336,,,,,,,,115.6457796000177,116.13793460000306,116.7862825000193,,,,,,,,,,l,1,0.6430209999671206,None,,,,,,p007,2026-04-14_14h32.54.461,Flanker Compatibility Task,,2026.1.1,120.28121749945075,2026-04-14 14h32.54.754394 +0800
4,diamond,incong,10,l,2,73,73,0,l,1,0.7902269000187516,None,,,,,0,73,73,188,116.79402089997893,,,,,,,,116.78774749999866,117.27943360002246,118.07063059997745,,,,,,,,,,l,1,0.7902269000187516,None,,,,,,p007,2026-04-14_14h32.54.461,Flanker Compatibility Task,,2026.1.1,120.28121749945075,2026-04-14 14h32.54.754394 +0800
3,square,incong,-10,a,3,74,74,0,a,1,0.5662527999957092,None,,,,,0,74,74,111,118.07682580000255,,,,,,,,118.07213839999167,118.5727616000222,119.14391809998779,,,,,,,,,,a,1,0.5662527999957092,None,,,,,,p007,2026-04-14_14h32.54.461,Flanker Compatibility Task,,2026.1.1,120.28121749945075,2026-04-14 14h32.54.754394 +0800
3,square,cong,10,a,0,75,75,0,a,1,0.5676699999603443,None,,,,,0,75,75,102,119.1519434999791,,,,,,,,119.14527199999429,119.63483529997757,120.20329640002456,,,,,,,,,,a,1,0.5676699999603443,None,,,,,,p007,2026-04-14_14h32.54.461,Flanker Compatibility Task,,2026.1.1,120.28121749945075,2026-04-14 14h32.54.754394 +0800
3,diamond,incong,10,l,4,76,76,0,l,1,0.4696457000100054,None,,,,,0,76,76,142,120.20979300001636,,,,,,,,120.20469889999367,120.69697649998125,121.16857759997947,,,,,,,,,,l,1,0.4696457000100054,None,,,,,,p007,2026-04-14_14h32.54.461,Flanker Compatibility Task,,2026.1.1,120.28121749945075,2026-04-14 14h32.54.754394 +0800
3,diamond,incong,10,l,0,77,77,0,l,1,0.6537215000134893,None,,,,,0,77,77,138,121.17607839999255,,,,,,,,121.16991429997142,121.66358479997143,122.31808220001403,,,,,,,,,,l,1,0.6537215000134893,None,,,,,,p007,2026-04-14_14h32.54.461,Flanker Compatibility Task,,2026.1.1,120.28121749945075,2026-04-14 14h32.54.754394 +0800
2,diamond,incong,-10,l,5,78,78,0,l,1,0.6528598,None,,,,,0,78,78,89,122.32660450000549,,,,,,,,122.31900090002455,122.81441290001385,123.4696192999836,,,,,,,,,,l,1,0.6528598,None,,,,,,p007,2026-04-14_14h32.54.461,Flanker Compatibility Task,,2026.1.1,120.28121749945075,2026-04-14 14h32.54.754394 +0800
1,square,incong,-10,a,3,79,79,0,a,1,0.4888950999593362,None,,,,,0,79,79,15,123.47596449998673,,,,,,,,123.47088280000025,123.96938159997808,124.46062299999176,,,,,,,,,,a,1,0.4888950999593362,None,,,,,,p007,2026-04-14_14h32.54.461,Flanker Compatibility Task,,2026.1.1,120.28121749945075,2026-04-14 14h32.54.754394 +0800
4,square,cong,10,a,3,80,80,0,a,1,0.5829350000130944,None,,,,,0,80,80,153,124.46699250000529,,,,,,,,124.46220130001893,124.96224449999863,125.55124529998284,,,,,,,,,,a,1,0.5829350000130944,None,,,,,,p007,2026-04-14_14h32.54.461,Flanker Compatibility Task,,2026.1.1,120.28121749945075,2026-04-14 14h32.54.754394 +0800
1,diamond,cong,10,l,0,81,81,0,l,1,0.45900069997878745,None,,,,,0,81,81,30,125.55851659999462,,,,,,,,125.5523719000048,126.04574999999022,126.50936249998631,,,,,,,,,,l,1,0.45900069997878745,None,,,,,,p007,2026-04-14_14h32.54.461,Flanker Compatibility Task,,2026.1.1,120.28121749945075,2026-04-14 14h32.54.754394 +0800
4,square,incong,-10,a,0,82,82,0,a,1,0.5874425,None,,,,,0,82,82,156,126.51650779996999,,,,,,,,126.51078720000805,127.00490910001099,127.60023009998258,,,,,,,,,,a,1,0.5874425,None,,,,,,p007,2026-04-14_14h32.54.461,Flanker Compatibility Task,,2026.1.1,120.28121749945075,2026-04-14 14h32.54.754394 +0800
4,square,cong,10,a,5,83,83,0,a,1,0.5730871999985538,None,,,,,0,83,83,155,127.60813409998082,,,,,,,,127.60169300000416,128.09637769998517,128.6755897999974,,,,,,,,,,a,1,0.5730871999985538,None,,,,,,p007,2026-04-14_14h32.54.461,Flanker Compatibility Task,,2026.1.1,120.28121749945075,2026-04-14 14h32.54.754394 +0800
3,square,cong,10,a,5,84,84,0,a,1,0.43798879999667406,None,,,,,0,84,84,107,128.6828471,,,,,,,,128.67693120002514,129.17067550000502,129.61705020000227,,,,,,,,,,a,1,0.43798879999667406,None,,,,,,p007,2026-04-14_14h32.54.461,Flanker Compatibility Task,,2026.1.1,120.28121749945075,2026-04-14 14h32.54.754394 +0800
4,diamond,incong,10,l,5,85,85,0,l,1,0.5439553000032902,None,,,,,0,85,85,191,129.62425469997106,,,,,,,,129.61880230001407,130.11282390000997,130.65806320001138,,,,,,,,,,l,1,0.5439553000032902,None,,,,,,p007,2026-04-14_14h32.54.461,Flanker Compatibility Task,,2026.1.1,120.28121749945075,2026-04-14 14h32.54.754394 +0800
3,square,cong,10,a,3,86,86,0,a,1,0.48596869996981695,None,,,,,0,86,86,105,130.66548099997453,,,,,,,,130.65907230001176,131.1597331999801,131.64972919999855,,,,,,,,,,a,1,0.48596869996981695,None,,,,,,p007,2026-04-14_14h32.54.461,Flanker Compatibility Task,,2026.1.1,120.28121749945075,2026-04-14 14h32.54.754394 +0800
1,square,incong,10,a,3,87,87,0,a,1,0.3917254999978468,None,,,,,0,87,87,21,131.65773289999925,,,,,,,,131.65066709998064,132.14421729999594,132.54206200002227,,,,,,,,,,a,1,0.3917254999978468,None,,,,,,p007,2026-04-14_14h32.54.461,Flanker Compatibility Task,,2026.1.1,120.28121749945075,2026-04-14 14h32.54.754394 +0800
4,diamond,incong,10,l,0,88,88,0,l,1,0.6600275000091642,None,,,,,0,88,88,186,132.54886580002494,,,,,,,,132.54360530001577,133.0368190999725,133.69880020001438,,,,,,,,,,l,1,0.6600275000091642,None,,,,,,p007,2026-04-14_14h32.54.461,Flanker Compatibility Task,,2026.1.1,120.28121749945075,2026-04-14 14h32.54.754394 +0800
2,square,incong,-10,a,1,89,89,0,a,1,0.4818663999903947,None,,,,,0,89,89,61,133.7068416000111,,,,,,,,133.69966410001507,134.19417339999927,134.68294129997957,,,,,,,,,,a,1,0.4818663999903947,None,,,,,,p007,2026-04-14_14h32.54.461,Flanker Compatibility Task,,2026.1.1,120.28121749945075,2026-04-14 14h32.54.754394 +0800
2,diamond,incong,-10,l,2,90,90,0,l,1,0.5133793000131845,None,,,,,0,90,90,86,134.69039689999772,,,,,,,,134.68422910000663,135.18571539997356,135.70649989997037,,,,,,,,,,l,1,0.5133793000131845,None,,,,,,p007,2026-04-14_14h32.54.461,Flanker Compatibility Task,,2026.1.1,120.28121749945075,2026-04-14 14h32.54.754394 +0800
1,square,cong,-10,a,2,91,91,0,a,1,0.4758482000324875,None,,,,,0,91,91,2,135.71408200002043,,,,,,,,135.7074107999797,136.20195309998235,136.68186249997234,,,,,,,,,,a,1,0.4758482000324875,None,,,,,,p007,2026-04-14_14h32.54.461,Flanker Compatibility Task,,2026.1.1,120.28121749945075,2026-04-14 14h32.54.754394 +0800
3,diamond,incong,-10,l,1,92,92,0,a,0,0.4993663000059314,None,,,,,0,92,92,133,136.6892657999997,,,,,,,,136.68291490001138,137.17690690001473,137.68090679997113,,,,,,,,,,a,0,0.4993663000059314,None,,,,,,p007,2026-04-14_14h32.54.461,Flanker Compatibility Task,,2026.1.1,120.28121749945075,2026-04-14 14h32.54.754394 +0800
1,diamond,incong,-10,l,5,93,93,0,l,1,0.6542763000470586,None,,,,,0,93,93,41,137.68882239999948,,,,,,,,137.6817824000027,138.17573949997313,138.8308248000103,,,,,,,,,,l,1,0.6542763000470586,None,,,,,,p007,2026-04-14_14h32.54.461,Flanker Compatibility Task,,2026.1.1,120.28121749945075,2026-04-14 14h32.54.754394 +0800
4,diamond,cong,-10,l,5,94,94,0,l,1,0.7012289999984205,None,,,,,0,94,94,173,138.83853349997662,,,,,,,,138.8320811999729,139.3225739999907,140.03042999998434,,,,,,,,,,l,1,0.7012289999984205,None,,,,,,p007,2026-04-14_14h32.54.461,Flanker Compatibility Task,,2026.1.1,120.28121749945075,2026-04-14 14h32.54.754394 +0800
3,diamond,incong,-10,l,2,95,95,0,a,0,0.6885666999733075,None,,,,,0,95,95,134,140.03941700002179,,,,,,,,140.0317473000032,140.52231289999327,141.21482029999606,,,,,,,,,,a,0,0.6885666999733075,None,,,,,,p007,2026-04-14_14h32.54.461,Flanker Compatibility Task,,2026.1.1,120.28121749945075,2026-04-14 14h32.54.754394 +0800
2,diamond,cong,-10,l,2,96,96,0,l,1,0.5495536,None,,,,,0,96,96,74,141.22129259997746,,,,,,,,141.21616650000215,141.7146073,142.27224249998108,,,,,,,,,,l,1,0.5495536,None,,,,,,p007,2026-04-14_14h32.54.461,Flanker Compatibility Task,,2026.1.1,120.28121749945075,2026-04-14 14h32.54.754394 +0800
3,square,incong,-10,a,0,97,97,0,a,1,0.7173436000011861,None,,,,,0,97,97,108,142.27975260000676,,,,,,,,142.27433879999444,142.76721479999833,143.4893234000192,,,,,,,,,,a,1,0.7173436000011861,None,,,,,,p007,2026-04-14_14h32.54.461,Flanker Compatibility Task,,2026.1.1,120.28121749945075,2026-04-14 14h32.54.754394 +0800
1,diamond,cong,-10,l,0,98,98,0,l,1,0.6868518000119366,None,,,,,0,98,98,24,143.49602979997871,,,,,,,,143.49057730002096,143.99195250001503,144.67983689997345,,,,,,,,,,l,1,0.6868518000119366,None,,,,,,p007,2026-04-14_14h32.54.461,Flanker Compatibility Task,,2026.1.1,120.28121749945075,2026-04-14 14h32.54.754394 +0800
3,diamond,incong,10,l,2,99,99,0,l,1,1.0835247000213712,None,,,,,0,99,99,140,144.68706450000172,,,,,,,,144.68115949997446,145.1721200000029,146.26250080001773,,,,,,,,,,l,1,1.0835247000213712,None,,,,,,p007,2026-04-14_14h32.54.461,Flanker Compatibility Task,,2026.1.1,120.28121749945075,2026-04-14 14h32.54.754394 +0800
1,square,cong,10,a,5,100,100,0,a,1,0.5380806000321172,None,,,,,0,100,100,11,146.27025419997517,,,,,,,,146.26392110000597,146.75745659996755,147.29622760001803,,,,,,,,,,a,1,0.5380806000321172,None,,,,,,p007,2026-04-14_14h32.54.461,Flanker Compatibility Task,,2026.1.1,120.28121749945075,2026-04-14 14h32.54.754394 +0800
4,diamond,cong,-10,l,2,101,101,0,l,1,0.6135390999843366,None,,,,,0,101,101,170,147.30382119998103,,,,,,,,147.29764349997276,147.79451209999388,148.4130510999821,,,,,,,,,,l,1,0.6135390999843366,None,,,,,,p007,2026-04-14_14h32.54.461,Flanker Compatibility Task,,2026.1.1,120.28121749945075,2026-04-14 14h32.54.754394 +0800
1,diamond,incong,10,l,2,102,102,0,l,1,0.6203713999711908,None,,,,,0,102,102,44,148.4197353000054,,,,,,,,148.4147375000175,148.9152402000036,149.5375267000054,,,,,,,,,,l,1,0.6203713999711908,None,,,,,,p007,2026-04-14_14h32.54.461,Flanker Compatibility Task,,2026.1.1,120.28121749945075,2026-04-14 14h32.54.754394 +0800
3,square,cong,10,a,4,103,103,0,a,1,0.6908034000080079,None,,,,,0,103,103,106,149.54448649997357,,,,,,,,149.53864500002237,150.0406705000205,150.7383589000092,,,,,,,,,,a,1,0.6908034000080079,None,,,,,,p007,2026-04-14_14h32.54.461,Flanker Compatibility Task,,2026.1.1,120.28121749945075,2026-04-14 14h32.54.754394 +0800
2,square,incong,-10,a,2,104,104,0,a,1,0.6046847000252455,None,,,,,0,104,104,62,150.74425019999035,,,,,,,,150.73968669999158,151.23966640001163,151.8458958999836,,,,,,,,,,a,1,0.6046847000252455,None,,,,,,p007,2026-04-14_14h32.54.461,Flanker Compatibility Task,,2026.1.1,120.28121749945075,2026-04-14 14h32.54.754394 +0800
4,diamond,incong,-10,l,1,105,105,0,l,1,0.6373730999766849,None,,,,,0,105,105,181,151.85223399999086,,,,,,,,151.84753239998827,152.34316440002294,152.9865087000071,,,,,,,,,,l,1,0.6373730999766849,None,,,,,,p007,2026-04-14_14h32.54.461,Flanker Compatibility Task,,2026.1.1,120.28121749945075,2026-04-14 14h32.54.754394 +0800
2,square,incong,10,a,2,106,106,0,a,1,0.6600828000227921,None,,,,,0,106,106,68,152.99373839999316,,,,,,,,152.98771449999185,153.4823465999798,154.14505089999875,,,,,,,,,,a,1,0.6600828000227921,None,,,,,,p007,2026-04-14_14h32.54.461,Flanker Compatibility Task,,2026.1.1,120.28121749945075,2026-04-14 14h32.54.754394 +0800
1,diamond,incong,10,l,0,107,107,0,l,1,0.6303977000061423,None,,,,,0,107,107,42,154.1518047999707,,,,,,,,154.14633499999763,154.63891049998347,155.2785198999918,,,,,,,,,,l,1,0.6303977000061423,None,,,,,,p007,2026-04-14_14h32.54.461,Flanker Compatibility Task,,2026.1.1,120.28121749945075,2026-04-14 14h32.54.754394 +0800
4,diamond,incong,-10,l,0,108,108,0,l,1,0.8771310999873094,None,,,,,0,108,108,180,155.2859534000163,,,,,,,,155.28008619998582,155.77907579997554,156.6599661000073,,,,,,,,,,l,1,0.8771310999873094,None,,,,,,p007,2026-04-14_14h32.54.461,Flanker Compatibility Task,,2026.1.1,120.28121749945075,2026-04-14 14h32.54.754394 +0800
1,diamond,incong,10,l,5,109,109,0,l,1,0.5403852999443188,None,,,,,0,109,109,47,156.66731970000546,,,,,,,,156.66084219998447,157.16339439997682,157.70945490000304,,,,,,,,,,l,1,0.5403852999443188,None,,,,,,p007,2026-04-14_14h32.54.461,Flanker Compatibility Task,,2026.1.1,120.28121749945075,2026-04-14 14h32.54.754394 +0800
4,diamond,cong,10,l,4,110,110,0,l,1,0.6179196000448428,None,,,,,0,110,110,178,157.7170966999838,,,,,,,,157.71093369997106,158.20546289999038,158.82599480001954,,,,,,,,,,l,1,0.6179196000448428,None,,,,,,p007,2026-04-14_14h32.54.461,Flanker Compatibility Task,,2026.1.1,120.28121749945075,2026-04-14 14h32.54.754394 +0800
2,square,incong,-10,a,4,111,111,0,a,1,0.47476789995562285,None,,,,,0,111,111,64,158.83357110002544,,,,,,,,158.8272479000152,159.32058759999927,159.80086149997078,,,,,,,,,,a,1,0.47476789995562285,None,,,,,,p007,2026-04-14_14h32.54.461,Flanker Compatibility Task,,2026.1.1,120.28121749945075,2026-04-14 14h32.54.754394 +0800
1,diamond,incong,-10,l,2,112,112,0,l,1,0.5646423999569379,None,,,,,0,112,112,38,159.80935499997577,,,,,,,,159.80198659998132,160.29518100002315,160.86710009997478,,,,,,,,,,l,1,0.5646423999569379,None,,,,,,p007,2026-04-14_14h32.54.461,Flanker Compatibility Task,,2026.1.1,120.28121749945075,2026-04-14 14h32.54.754394 +0800
3,square,cong,-10,a,5,113,113,0,a,1,0.6511938999756239,None,,,,,0,113,113,101,160.87492229999043,,,,,,,,160.86840009997832,161.36899899999844,162.02519999997457,,,,,,,,,,a,1,0.6511938999756239,None,,,,,,p007,2026-04-14_14h32.54.461,Flanker Compatibility Task,,2026.1.1,120.28121749945075,2026-04-14 14h32.54.754394 +0800
3,square,incong,10,a,0,114,114,0,a,1,0.5300238,None,,,,,0,114,114,114,162.03375300002517,,,,,,,,162.02656299999217,162.52034170000115,163.05955940001877,,,,,,,,,,a,1,0.5300238,None,,,,,,p007,2026-04-14_14h32.54.461,Flanker Compatibility Task,,2026.1.1,120.28121749945075,2026-04-14 14h32.54.754394 +0800
1,square,cong,10,a,2,115,115,0,a,1,0.5585491000092588,None,,,,,0,115,115,8,163.0670933999936,,,,,,,,163.06085670000175,163.55436289997306,164.11770270002307,,,,,,,,,,a,1,0.5585491000092588,None,,,,,,p007,2026-04-14_14h32.54.461,Flanker Compatibility Task,,2026.1.1,120.28121749945075,2026-04-14 14h32.54.754394 +0800
2,diamond,incong,-10,l,0,116,116,0,l,1,0.5235836999490857,None,,,,,0,116,116,84,164.12473079998745,,,,,,,,164.11903439997695,164.62108529999387,165.15029299998423,,,,,,,,,,l,1,0.5235836999490857,None,,,,,,p007,2026-04-14_14h32.54.461,Flanker Compatibility Task,,2026.1.1,120.28121749945075,2026-04-14 14h32.54.754394 +0800
1,diamond,incong,-10,l,4,117,117,0,l,1,0.5870504000340588,None,,,,,0,117,117,40,165.1580677999882,,,,,,,,165.15141059999587,165.64461830002256,166.2342529000016,,,,,,,,,,l,1,0.5870504000340588,None,,,,,,p007,2026-04-14_14h32.54.461,Flanker Compatibility Task,,2026.1.1,120.28121749945075,2026-04-14 14h32.54.754394 +0800
1,diamond,incong,-10,l,0,118,118,0,l,1,0.5735951000242494,None,,,,,0,118,118,36,166.2410742000211,,,,,,,,166.2355248,166.73565739998594,167.31693570001516,,,,,,,,,,l,1,0.5735951000242494,None,,,,,,p007,2026-04-14_14h32.54.461,Flanker Compatibility Task,,2026.1.1,120.28121749945075,2026-04-14 14h32.54.754394 +0800
4,square,cong,-10,a,2,119,119,0,a,1,0.46214430005056784,None,,,,,0,119,119,146,167.3236875999719,,,,,,,,167.31886890000897,167.8231312999851,168.29028279997874,,,,,,,,,,a,1,0.46214430005056784,None,,,,,,p007,2026-04-14_14h32.54.461,Flanker Compatibility Task,,2026.1.1,120.28121749945075,2026-04-14 14h32.54.754394 +0800
1,diamond,incong,-10,l,3,120,120,0,l,1,0.6261649999651127,None,,,,,0,120,120,39,168.2978340999689,,,,,,,,168.29116299998714,168.78392409998924,169.41550990001997,,,,,,,,,,l,1,0.6261649999651127,None,,,,,,p007,2026-04-14_14h32.54.461,Flanker Compatibility Task,,2026.1.1,120.28121749945075,2026-04-14 14h32.54.754394 +0800
4,diamond,cong,10,l,5,121,121,0,l,1,0.8271866000141017,None,,,,,0,121,121,179,169.42356329999166,,,,,,,,169.41706609999528,169.90985060000094,170.74076020001667,,,,,,,,,,l,1,0.8271866000141017,None,,,,,,p007,2026-04-14_14h32.54.461,Flanker Compatibility Task,,2026.1.1,120.28121749945075,2026-04-14 14h32.54.754394 +0800
1,diamond,incong,10,l,4,122,122,0,l,1,0.5080767999752425,None,,,,,0,122,122,46,170.74751590000233,,,,,,,,170.7420416,171.2349944000016,171.74817149998853,,,,,,,,,,l,1,0.5080767999752425,None,,,,,,p007,2026-04-14_14h32.54.461,Flanker Compatibility Task,,2026.1.1,120.28121749945075,2026-04-14 14h32.54.754394 +0800
3,diamond,incong,-10,l,4,123,123,0,l,1,0.49511619994882494,None,,,,,0,123,123,136,171.75551250000717,,,,,,,,171.7492196999956,172.2433787,172.74032099999022,,,,,,,,,,l,1,0.49511619994882494,None,,,,,,p007,2026-04-14_14h32.54.461,Flanker Compatibility Task,,2026.1.1,120.28121749945075,2026-04-14 14h32.54.754394 +0800
2,diamond,cong,10,l,0,124,124,0,l,1,0.6161910999799147,None,,,,,0,124,124,78,172.74731930001872,,,,,,,,172.74191520002205,173.23492630000692,173.85574949998409,,,,,,,,,,l,1,0.6161910999799147,None,,,,,,p007,2026-04-14_14h32.54.461,Flanker Compatibility Task,,2026.1.1,120.28121749945075,2026-04-14 14h32.54.754394 +0800
2,diamond,incong,10,l,0,125,125,0,l,1,0.5583786999923177,None,,,,,0,125,125,90,173.86315479996847,,,,,,,,173.85665299999528,174.3510341999936,174.9153964999714,,,,,,,,,,l,1,0.5583786999923177,None,,,,,,p007,2026-04-14_14h32.54.461,Flanker Compatibility Task,,2026.1.1,120.28121749945075,2026-04-14 14h32.54.754394 +0800
1,square,incong,10,a,0,126,126,0,a,1,0.4818010000162758,None,,,,,0,126,126,18,174.92229580000276,,,,,,,,174.91701530001592,175.41586050001206,175.9055156999966,,,,,,,,,,a,1,0.4818010000162758,None,,,,,,p007,2026-04-14_14h32.54.461,Flanker Compatibility Task,,2026.1.1,120.28121749945075,2026-04-14 14h32.54.754394 +0800
4,diamond,cong,10,l,0,127,127,0,l,1,0.7707835999899544,None,,,,,0,127,127,174,175.91307989996858,,,,,,,,175.90663260000292,176.40039750002325,177.17288779997034,,,,,,,,,,l,1,0.7707835999899544,None,,,,,,p007,2026-04-14_14h32.54.461,Flanker Compatibility Task,,2026.1.1,120.28121749945075,2026-04-14 14h32.54.754394 +0800
2,diamond,incong,10,l,1,128,128,0,l,1,0.5929659999674186,None,,,,,0,128,128,91,177.17986689996906,,,,,,,,177.17422049999004,177.67550790001405,178.2725987000158,,,,,,,,,,l,1,0.5929659999674186,None,,,,,,p007,2026-04-14_14h32.54.461,Flanker Compatibility Task,,2026.1.1,120.28121749945075,2026-04-14 14h32.54.754394 +0800
1,square,cong,-10,a,3,129,129,0,a,1,0.4641549999942072,None,,,,,0,129,129,3,178.27961759996833,,,,,,,,178.27389770001173,178.77483860001666,179.245997,,,,,,,,,,a,1,0.4641549999942072,None,,,,,,p007,2026-04-14_14h32.54.461,Flanker Compatibility Task,,2026.1.1,120.28121749945075,2026-04-14 14h32.54.754394 +0800
1,diamond,incong,10,l,3,130,130,0,l,1,0.6135919000371359,None,,,,,0,130,130,45,179.25358090002555,,,,,,,,179.24687849998008,179.73883859999478,180.35483159997966,,,,,,,,,,l,1,0.6135919000371359,None,,,,,,p007,2026-04-14_14h32.54.461,Flanker Compatibility Task,,2026.1.1,120.28121749945075,2026-04-14 14h32.54.754394 +0800
4,square,cong,10,a,2,131,131,0,a,1,0.5435936,None,,,,,0,131,131,152,180.36192029999802,,,,,,,,180.35626600001706,180.8560316999792,181.40469190001022,,,,,,,,,,a,1,0.5435936,None,,,,,,p007,2026-04-14_14h32.54.461,Flanker Compatibility Task,,2026.1.1,120.28121749945075,2026-04-14 14h32.54.754394 +0800
1,diamond,incong,-10,l,1,132,132,0,l,1,0.5418333999696188,None,,,,,0,132,132,37,181.41246109997155,,,,,,,,181.40588019997813,181.90406779997284,182.4538686,,,,,,,,,,l,1,0.5418333999696188,None,,,,,,p007,2026-04-14_14h32.54.461,Flanker Compatibility Task,,2026.1.1,120.28121749945075,2026-04-14 14h32.54.754394 +0800
4,diamond,cong,-10,l,0,133,133,0,a,0,0.7288218999747187,None,,,,,0,133,133,168,182.4622978999978,,,,,,,,182.45528749999357,182.95259040000383,183.6871597999707,,,,,,,,,,a,0,0.7288218999747187,None,,,,,,p007,2026-04-14_14h32.54.461,Flanker Compatibility Task,,2026.1.1,120.28121749945075,2026-04-14 14h32.54.754394 +0800
2,diamond,cong,10,l,1,134,134,0,l,1,0.6402695000288077,None,,,,,0,134,134,79,183.69525799999246,,,,,,,,183.6886199999717,184.18061729997862,184.82839859998785,,,,,,,,,,l,1,0.6402695000288077,None,,,,,,p007,2026-04-14_14h32.54.461,Flanker Compatibility Task,,2026.1.1,120.28121749945075,2026-04-14 14h32.54.754394 +0800
3,square,incong,-10,a,1,135,135,0,a,1,0.7270224000094458,None,,,,,0,135,135,109,184.83631739998236,,,,,,,,184.82974919996923,185.32953470002394,186.06209179997677,,,,,,,,,,a,1,0.7270224000094458,None,,,,,,p007,2026-04-14_14h32.54.461,Flanker Compatibility Task,,2026.1.1,120.28121749945075,2026-04-14 14h32.54.754394 +0800
2,square,cong,-10,a,4,136,136,0,a,1,0.7480607000179589,None,,,,,0,136,136,52,186.0694367000251,,,,,,,,186.06346119998489,186.5568237999687,187.31171069998527,,,,,,,,,,a,1,0.7480607000179589,None,,,,,,p007,2026-04-14_14h32.54.461,Flanker Compatibility Task,,2026.1.1,120.28121749945075,2026-04-14 14h32.54.754394 +0800
1,square,cong,-10,a,1,137,137,0,a,1,0.4471738999709487,None,,,,,0,137,137,1,187.31973649997963,,,,,,,,187.31294650002383,187.8065743999905,188.2617145999684,,,,,,,,,,a,1,0.4471738999709487,None,,,,,,p007,2026-04-14_14h32.54.461,Flanker Compatibility Task,,2026.1.1,120.28121749945075,2026-04-14 14h32.54.754394 +0800
4,square,incong,-10,a,5,138,138,0,a,1,0.6662995,None,,,,,0,138,138,161,188.26908820000244,,,,,,,,188.2634366999846,188.75670939998236,189.4283807000029,,,,,,,,,,a,1,0.6662995,None,,,,,,p007,2026-04-14_14h32.54.461,Flanker Compatibility Task,,2026.1.1,120.28121749945075,2026-04-14 14h32.54.754394 +0800
3,diamond,cong,-10,l,3,139,139,0,l,1,0.7390460000024177,None,,,,,0,139,139,123,189.43538109998917,,,,,,,,189.43021810002392,189.93024369998602,190.67750739998883,,,,,,,,,,l,1,0.7390460000024177,None,,,,,,p007,2026-04-14_14h32.54.461,Flanker Compatibility Task,,2026.1.1,120.28121749945075,2026-04-14 14h32.54.754394 +0800
4,square,incong,10,a,5,140,140,0,a,1,0.6824554,None,,,,,0,140,140,167,190.68493330001365,,,,,,,,190.6789944000193,191.17243749997579,191.86045500001637,,,,,,,,,,a,1,0.6824554,None,,,,,,p007,2026-04-14_14h32.54.461,Flanker Compatibility Task,,2026.1.1,120.28121749945075,2026-04-14 14h32.54.754394 +0800
3,diamond,cong,-10,l,5,141,141,0,l,1,0.8518779000150971,None,,,,,0,141,141,125,191.86787329998333,,,,,,,,191.86179990001256,192.36176709999563,193.2175919,,,,,,,,,,l,1,0.8518779000150971,None,,,,,,p007,2026-04-14_14h32.54.461,Flanker Compatibility Task,,2026.1.1,120.28121749945075,2026-04-14 14h32.54.754394 +0800
1,square,cong,-10,a,5,142,142,0,a,1,0.5784500000299886,None,,,,,0,142,142,5,193.2249597000191,,,,,,,,193.21847429999616,193.70824659999926,194.29219710000325,,,,,,,,,,a,1,0.5784500000299886,None,,,,,,p007,2026-04-14_14h32.54.461,Flanker Compatibility Task,,2026.1.1,120.28121749945075,2026-04-14 14h32.54.754394 +0800
2,diamond,incong,10,l,5,143,143,0,l,1,0.5884215999976732,None,,,,,0,143,143,95,194.29994539998006,,,,,,,,194.29330339998705,194.78545470000245,195.3754996000207,,,,,,,,,,l,1,0.5884215999976732,None,,,,,,p007,2026-04-14_14h32.54.461,Flanker Compatibility Task,,2026.1.1,120.28121749945075,2026-04-14 14h32.54.754394 +0800
2,square,cong,-10,a,5,144,144,0,a,1,0.5908366999938153,None,,,,,0,144,144,53,195.38261530001182,,,,,,,,195.3768332999898,195.87075860000914,196.46684509998886,,,,,,,,,,a,1,0.5908366999938153,None,,,,,,p007,2026-04-14_14h32.54.461,Flanker Compatibility Task,,2026.1.1,120.28121749945075,2026-04-14 14h32.54.754394 +0800
4,square,cong,-10,a,1,145,145,0,a,1,0.6895826000254601,None,,,,,0,145,145,145,196.47418239997933,,,,,,,,196.46829430002254,196.96330800000578,197.65811369998846,,,,,,,,,,a,1,0.6895826000254601,None,,,,,,p007,2026-04-14_14h32.54.461,Flanker Compatibility Task,,2026.1.1,120.28121749945075,2026-04-14 14h32.54.754394 +0800
1,square,cong,-10,a,4,146,146,0,a,1,0.5784597999881953,None,,,,,0,146,146,4,197.66560419998132,,,,,,,,197.65929009998217,198.1572095999727,198.74118479999015,,,,,,,,,,a,1,0.5784597999881953,None,,,,,,p007,2026-04-14_14h32.54.461,Flanker Compatibility Task,,2026.1.1,120.28121749945075,2026-04-14 14h32.54.754394 +0800
2,square,incong,-10,a,5,147,147,0,a,1,0.4895542000303976,None,,,,,0,147,147,65,198.74950229999376,,,,,,,,198.7423610999831,199.23590139998123,199.72615469997982,,,,,,,,,,a,1,0.4895542000303976,None,,,,,,p007,2026-04-14_14h32.54.461,Flanker Compatibility Task,,2026.1.1,120.28121749945075,2026-04-14 14h32.54.754394 +0800
4,square,cong,-10,a,3,148,148,0,a,1,0.6723901000223123,None,,,,,0,148,148,147,199.73271880001994,,,,,,,,199.72791289997986,200.22839030000614,200.90703890001168,,,,,,,,,,a,1,0.6723901000223123,None,,,,,,p007,2026-04-14_14h32.54.461,Flanker Compatibility Task,,2026.1.1,120.28121749945075,2026-04-14 14h32.54.754394 +0800
4,diamond,cong,-10,l,4,149,149,0,l,1,1.039972,None,,,,,0,149,149,172,200.91600159998052,,,,,,,,200.90848579996964,201.40309360000538,202.4487100999686,,,,,,,,,,l,1,1.039972,None,,,,,,p007,2026-04-14_14h32.54.461,Flanker Compatibility Task,,2026.1.1,120.28121749945075,2026-04-14 14h32.54.754394 +0800
2,diamond,cong,10,l,2,150,150,0,l,1,0.5696207000291906,None,,,,,0,150,150,80,202.45627819997026,,,,,,,,202.4499455000041,202.95151109999279,203.52330409997376,,,,,,,,,,l,1,0.5696207000291906,None,,,,,,p007,2026-04-14_14h32.54.461,Flanker Compatibility Task,,2026.1.1,120.28121749945075,2026-04-14 14h32.54.754394 +0800
3,square,incong,10,a,5,151,151,0,a,1,0.6679584000376053,None,,,,,0,151,151,119,203.53094620001502,,,,,,,,203.52437599998666,204.02427310001804,204.69820809998782,,,,,,,,,,a,1,0.6679584000376053,None,,,,,,p007,2026-04-14_14h32.54.461,Flanker Compatibility Task,,2026.1.1,120.28121749945075,2026-04-14 14h32.54.754394 +0800
2,square,incong,10,a,4,152,152,0,a,1,0.5213175999815576,None,,,,,0,152,152,70,204.70539369998733,,,,,,,,204.6992599000223,205.19942279998213,205.72264599998016,,,,,,,,,,a,1,0.5213175999815576,None,,,,,,p007,2026-04-14_14h32.54.461,Flanker Compatibility Task,,2026.1.1,120.28121749945075,2026-04-14 14h32.54.754394 +0800
2,diamond,cong,-10,l,0,153,153,0,l,1,0.47691679996205494,None,,,,,0,153,153,72,205.7304941000184,,,,,,,,205.72365669999272,206.21813459997065,206.69799349998357,,,,,,,,,,l,1,0.47691679996205494,None,,,,,,p007,2026-04-14_14h32.54.461,Flanker Compatibility Task,,2026.1.1,120.28121749945075,2026-04-14 14h32.54.754394 +0800
1,diamond,cong,10,l,4,154,154,0,a,0,0.5307898999890313,None,,,,,0,154,154,34,206.7048814999871,,,,,,,,206.69918609998422,207.1921823999728,207.7303980999859,,,,,,,,,,a,0,0.5307898999890313,None,,,,,,p007,2026-04-14_14h32.54.461,Flanker Compatibility Task,,2026.1.1,120.28121749945075,2026-04-14 14h32.54.754394 +0800
1,diamond,cong,-10,l,3,155,155,0,l,1,0.6234014999936335,None,,,,,0,155,155,27,207.73926850000862,,,,,,,,207.7316047999775,208.22284349997062,208.84754180000164,,,,,,,,,,l,1,0.6234014999936335,None,,,,,,p007,2026-04-14_14h32.54.461,Flanker Compatibility Task,,2026.1.1,120.28121749945075,2026-04-14 14h32.54.754394 +0800
1,diamond,cong,-10,l,1,156,156,0,l,1,0.5270208999863826,None,,,,,0,156,156,25,208.85451239999384,,,,,,,,208.84882070001913,209.34618300001603,209.8796704999986,,,,,,,,,,l,1,0.5270208999863826,None,,,,,,p007,2026-04-14_14h32.54.461,Flanker Compatibility Task,,2026.1.1,120.28121749945075,2026-04-14 14h32.54.754394 +0800
2,square,incong,-10,a,0,157,157,0,a,1,0.5267761999857612,None,,,,,0,157,157,60,209.88728839997202,,,,,,,,209.8808946000063,210.37416080001276,210.9059120999882,,,,,,,,,,a,1,0.5267761999857612,None,,,,,,p007,2026-04-14_14h32.54.461,Flanker Compatibility Task,,2026.1.1,120.28121749945075,2026-04-14 14h32.54.754394 +0800
1,square,incong,-10,a,4,158,158,0,a,1,0.67836,None,,,,,0,158,158,16,210.9121574999881,,,,,,,,210.9071695000166,211.40877819998423,212.09600830002455,,,,,,,,,,a,1,0.67836,None,,,,,,p007,2026-04-14_14h32.54.461,Flanker Compatibility Task,,2026.1.1,120.28121749945075,2026-04-14 14h32.54.754394 +0800
4,diamond,cong,10,l,2,159,159,0,l,1,1.0784091000095941,None,,,,,0,159,159,176,212.1039691999904,,,,,,,,212.0970435999916,212.59157779999077,213.67168660002062,,,,,,,,,,l,1,1.0784091000095941,None,,,,,,p007,2026-04-14_14h32.54.461,Flanker Compatibility Task,,2026.1.1,120.28121749945075,2026-04-14 14h32.54.754394 +0800
4,diamond,incong,-10,l,2,160,160,0,l,1,0.6138374000438489,None,,,,,0,160,160,182,213.6781247999752,,,,,,,,213.6734340999974,214.1729962999816,214.7952594999806,,,,,,,,,,l,1,0.6138374000438489,None,,,,,,p007,2026-04-14_14h32.54.461,Flanker Compatibility Task,,2026.1.1,120.28121749945075,2026-04-14 14h32.54.754394 +0800
4,square,cong,-10,a,5,161,161,0,a,1,0.6768757000099868,None,,,,,0,161,161,149,214.80315100000007,,,,,,,,214.7964189000195,215.28915730002336,215.97006829996826,,,,,,,,,,a,1,0.6768757000099868,None,,,,,,p007,2026-04-14_14h32.54.461,Flanker Compatibility Task,,2026.1.1,120.28121749945075,2026-04-14 14h32.54.754394 +0800
2,square,incong,10,a,5,162,162,0,a,1,0.5637659000349231,None,,,,,0,162,162,71,215.9784780999762,,,,,,,,215.9712994999718,216.46658980002394,217.0368390000076,,,,,,,,,,a,1,0.5637659000349231,None,,,,,,p007,2026-04-14_14h32.54.461,Flanker Compatibility Task,,2026.1.1,120.28121749945075,2026-04-14 14h32.54.754394 +0800
4,square,incong,10,a,0,163,163,0,a,1,0.6566374,None,,,,,0,163,163,162,217.04551760002505,,,,,,,,217.03806180000538,217.5338255999959,218.19485959998565,,,,,,,,,,a,1,0.6566374,None,,,,,,p007,2026-04-14_14h32.54.461,Flanker Compatibility Task,,2026.1.1,120.28121749945075,2026-04-14 14h32.54.754394 +0800
3,square,cong,-10,a,4,164,164,0,a,1,0.5464523,None,,,,,0,164,164,100,218.20262729999376,,,,,,,,218.19583380001131,218.68957769998815,219.2442968999967,,,,,,,,,,a,1,0.5464523,None,,,,,,p007,2026-04-14_14h32.54.461,Flanker Compatibility Task,,2026.1.1,120.28121749945075,2026-04-14 14h32.54.754394 +0800
2,diamond,incong,10,l,2,165,165,0,l,1,0.47942729998612776,None,,,,,0,165,165,92,219.25194109999575,,,,,,,,219.24519849999342,219.74504080001498,220.22766229999252,,,,,,,,,,l,1,0.47942729998612776,None,,,,,,p007,2026-04-14_14h32.54.461,Flanker Compatibility Task,,2026.1.1,120.28121749945075,2026-04-14 14h32.54.754394 +0800
1,diamond,cong,-10,l,2,166,166,0,l,1,0.7975696999928914,None,,,,,0,166,166,26,220.23511249996955,,,,,,,,220.22854560002452,220.72018070000922,221.51901139999973,,,,,,,,,,l,1,0.7975696999928914,None,,,,,,p007,2026-04-14_14h32.54.461,Flanker Compatibility Task,,2026.1.1,120.28121749945075,2026-04-14 14h32.54.754394 +0800
1,square,incong,10,a,2,167,167,0,a,1,0.5192880000104196,None,,,,,0,167,167,20,221.5265090999892,,,,,,,,221.52015310002025,222.01372689998243,222.53627739998046,,,,,,,,,,a,1,0.5192880000104196,None,,,,,,p007,2026-04-14_14h32.54.461,Flanker Compatibility Task,,2026.1.1,120.28121749945075,2026-04-14 14h32.54.754394 +0800
4,diamond,cong,10,l,1,168,168,0,l,1,0.8272436000406742,None,,,,,0,168,168,175,222.54282640002202,,,,,,,,222.53782799997134,223.0393335999688,223.86917469999753,,,,,,,,,,l,1,0.8272436000406742,None,,,,,,p007,2026-04-14_14h32.54.461,Flanker Compatibility Task,,2026.1.1,120.28121749945075,2026-04-14 14h32.54.754394 +0800
3,diamond,cong,-10,l,1,169,169,0,a,0,0.7295798999839462,None,,,,,0,169,169,121,223.87590990000172,,,,,,,,223.87060099997325,224.37195880000945,225.10933240002487,,,,,,,,,,a,0,0.7295798999839462,None,,,,,,p007,2026-04-14_14h32.54.461,Flanker Compatibility Task,,2026.1.1,120.28121749945075,2026-04-14 14h32.54.754394 +0800
1,square,incong,-10,a,1,170,170,0,a,1,0.5872743999934755,None,,,,,0,170,170,13,225.11853610002436,,,,,,,,225.11024599999655,225.60322390001966,226.19279240001924,,,,,,,,,,a,1,0.5872743999934755,None,,,,,,p007,2026-04-14_14h32.54.461,Flanker Compatibility Task,,2026.1.1,120.28121749945075,2026-04-14 14h32.54.754394 +0800
3,square,incong,-10,a,5,171,171,0,a,1,0.6529314999934286,None,,,,,0,171,171,113,226.20038240001304,,,,,,,,226.19411219999893,226.68568429996958,227.34288800001377,,,,,,,,,,a,1,0.6529314999934286,None,,,,,,p007,2026-04-14_14h32.54.461,Flanker Compatibility Task,,2026.1.1,120.28121749945075,2026-04-14 14h32.54.754394 +0800
1,square,incong,10,a,1,172,172,0,a,1,0.6255030000465922,None,,,,,0,172,172,19,227.35037840000587,,,,,,,,227.34401270002127,227.83777250000276,228.46691840002313,,,,,,,,,,a,1,0.6255030000465922,None,,,,,,p007,2026-04-14_14h32.54.461,Flanker Compatibility Task,,2026.1.1,120.28121749945075,2026-04-14 14h32.54.754394 +0800
1,diamond,cong,10,l,3,173,173,0,l,1,0.6654804000281729,None,,,,,0,173,173,33,228.47453529998893,,,,,,,,228.4681482,228.96177749999333,229.63358329999028,,,,,,,,,,l,1,0.6654804000281729,None,,,,,,p007,2026-04-14_14h32.54.461,Flanker Compatibility Task,,2026.1.1,120.28121749945075,2026-04-14 14h32.54.754394 +0800
4,square,incong,10,a,2,174,174,0,a,1,0.6764813999761827,None,,,,,0,174,174,164,229.6413804999902,,,,,,,,229.63502990000416,230.1356558999978,230.81659729999956,,,,,,,,,,a,1,0.6764813999761827,None,,,,,,p007,2026-04-14_14h32.54.461,Flanker Compatibility Task,,2026.1.1,120.28121749945075,2026-04-14 14h32.54.754394 +0800
3,square,cong,-10,a,3,175,175,0,a,1,0.6245271999505349,None,,,,,0,175,175,99,230.82411360001424,,,,,,,,230.81791599997086,231.31165260000853,231.9409588999697,,,,,,,,,,a,1,0.6245271999505349,None,,,,,,p007,2026-04-14_14h32.54.461,Flanker Compatibility Task,,2026.1.1,120.28121749945075,2026-04-14 14h32.54.754394 +0800
2,square,cong,-10,a,0,176,176,0,a,1,0.5258113999734633,None,,,,,0,176,176,48,231.9490616999683,,,,,,,,231.94215999997687,232.43642699997872,232.96614600002067,,,,,,,,,,a,1,0.5258113999734633,None,,,,,,p007,2026-04-14_14h32.54.461,Flanker Compatibility Task,,2026.1.1,120.28121749945075,2026-04-14 14h32.54.754394 +0800
3,diamond,cong,10,l,2,177,177,0,l,1,0.7291208999813534,None,,,,,0,177,177,128,232.97359160002088,,,,,,,,232.96747259999393,233.46088929998223,234.2004883000045,,,,,,,,,,l,1,0.7291208999813534,None,,,,,,p007,2026-04-14_14h32.54.461,Flanker Compatibility Task,,2026.1.1,120.28121749945075,2026-04-14 14h32.54.754394 +0800
1,square,cong,10,a,0,178,178,0,a,1,0.5615671999985352,None,,,,,0,178,178,6,234.2065976000158,,,,,,,,234.20166969997808,234.70204860001104,235.26627109997207,,,,,,,,,,a,1,0.5615671999985352,None,,,,,,p007,2026-04-14_14h32.54.461,Flanker Compatibility Task,,2026.1.1,120.28121749945075,2026-04-14 14h32.54.754394 +0800
2,square,incong,-10,a,3,179,179,0,a,1,0.5792141000274569,None,,,,,0,179,179,63,235.2735572999809,,,,,,,,235.26762009999948,235.7611598999938,236.34817349998048,,,,,,,,,,a,1,0.5792141000274569,None,,,,,,p007,2026-04-14_14h32.54.461,Flanker Compatibility Task,,2026.1.1,120.28121749945075,2026-04-14 14h32.54.754394 +0800
4,diamond,incong,-10,l,5,180,180,0,l,1,0.7519990000291727,None,,,,,0,180,180,185,236.35587229998782,,,,,,,,236.34959689999232,236.84253640001407,237.59792729996843,,,,,,,,,,l,1,0.7519990000291727,None,,,,,,p007,2026-04-14_14h32.54.461,Flanker Compatibility Task,,2026.1.1,120.28121749945075,2026-04-14 14h32.54.754394 +0800
1,diamond,cong,10,l,2,181,181,0,l,1,0.46657150000100955,None,,,,,0,181,181,32,237.60551939997822,,,,,,,,237.5992037000251,238.09359489998315,238.56531999999424,,,,,,,,,,l,1,0.46657150000100955,None,,,,,,p007,2026-04-14_14h32.54.461,Flanker Compatibility Task,,2026.1.1,120.28121749945075,2026-04-14 14h32.54.754394 +0800
4,square,cong,-10,a,0,182,182,0,a,1,0.6101277999696322,None,,,,,0,182,182,144,238.5722042999696,,,,,,,,238.5667524000164,239.0606519000139,239.67313640000066,,,,,,,,,,a,1,0.6101277999696322,None,,,,,,p007,2026-04-14_14h32.54.461,Flanker Compatibility Task,,2026.1.1,120.28121749945075,2026-04-14 14h32.54.754394 +0800
4,diamond,cong,-10,l,3,183,183,0,l,1,0.8545843,None,,,,,0,183,183,171,239.68049589998554,,,,,,,,239.67457590001868,240.1750774999964,241.03072119998978,,,,,,,,,,l,1,0.8545843,None,,,,,,p007,2026-04-14_14h32.54.461,Flanker Compatibility Task,,2026.1.1,120.28121749945075,2026-04-14 14h32.54.754394 +0800
3,diamond,cong,10,l,5,184,184,0,l,1,0.5491711,None,,,,,0,184,184,131,241.03831209999043,,,,,,,,241.03186970000388,241.53426480002236,242.08917180000572,,,,,,,,,,l,1,0.5491711,None,,,,,,p007,2026-04-14_14h32.54.461,Flanker Compatibility Task,,2026.1.1,120.28121749945075,2026-04-14 14h32.54.754394 +0800
1,diamond,cong,10,l,1,185,185,0,l,1,0.4891497999778949,None,,,,,0,185,185,31,242.09726309997495,,,,,,,,242.09035080001922,242.58343569998397,243.0798276999849,,,,,,,,,,l,1,0.4891497999778949,None,,,,,,p007,2026-04-14_14h32.54.461,Flanker Compatibility Task,,2026.1.1,120.28121749945075,2026-04-14 14h32.54.754394 +0800
3,square,cong,10,a,2,186,186,0,a,1,0.5223070000065491,None,,,,,0,186,186,104,243.08828169998014,,,,,,,,243.08124929998303,243.57258480001474,244.09740989998681,,,,,,,,,,a,1,0.5223070000065491,None,,,,,,p007,2026-04-14_14h32.54.461,Flanker Compatibility Task,,2026.1.1,120.28121749945075,2026-04-14 14h32.54.754394 +0800
4,diamond,incong,10,l,3,187,187,0,l,1,0.5263124000048265,None,,,,,0,187,187,189,244.1041965999757,,,,,,,,244.0985305000213,244.5986701999791,245.1295564000029,,,,,,,,,,l,1,0.5263124000048265,None,,,,,,p007,2026-04-14_14h32.54.461,Flanker Compatibility Task,,2026.1.1,120.28121749945075,2026-04-14 14h32.54.754394 +0800
3,square,cong,-10,a,0,188,188,0,a,1,0.49231400003191084,None,,,,,0,188,188,96,245.13759019999998,,,,,,,,245.13092600001255,245.63118339999346,246.12954419996822,,,,,,,,,,a,1,0.49231400003191084,None,,,,,,p007,2026-04-14_14h32.54.461,Flanker Compatibility Task,,2026.1.1,120.28121749945075,2026-04-14 14h32.54.754394 +0800
3,diamond,incong,10,l,3,189,189,0,l,1,0.6098865999956615,None,,,,,0,189,189,141,246.13714880001498,,,,,,,,246.1308756999788,246.6304995000246,247.24595489999047,,,,,,,,,,l,1,0.6098865999956615,None,,,,,,p007,2026-04-14_14h32.54.461,Flanker Compatibility Task,,2026.1.1,120.28121749945075,2026-04-14 14h32.54.754394 +0800
1,square,incong,-10,a,2,190,190,0,a,1,0.5929075999883935,None,,,,,0,190,190,14,247.2536403000122,,,,,,,,247.24710159999086,247.7449058999773,248.33826250000857,,,,,,,,,,a,1,0.5929075999883935,None,,,,,,p007,2026-04-14_14h32.54.461,Flanker Compatibility Task,,2026.1.1,120.28121749945075,2026-04-14 14h32.54.754394 +0800
4,diamond,incong,10,l,1,191,191,0,l,1,0.5637758999946527,None,,,,,0,191,191,187,248.3455447999877,,,,,,,,248.33922429999802,248.83708059997298,249.40396889997646,,,,,,,,,,l,1,0.5637758999946527,None,,,,,,p007,2026-04-14_14h32.54.461,Flanker Compatibility Task,,2026.1.1,120.28121749945075,2026-04-14 14h32.54.754394 +0800
,,,,,,,,,,,,,,,,,,,,,,,,,,,,,,,,,,,,,,,,,,,,,249.4041604999802,253.58639319997746,space,4.172679499955848,None,p007,2026-04-14_14h32.54.461,Flanker Compatibility Task,,2026.1.1,120.28121749945075,2026-04-14 14h32.54.754394 +0800
